File: JinData/Spectra_output_0_1736790118.txt
Wavelength [nm]    	Intensity [counts]
344.912	-1792.43
345.565 	-1866.31
346.219	589.297
346.872 	289.251
347.526   	579.698
348.179   	950.993
348.832  	744.627
349.485	778.576
350.138  	720.205
350.791   	638.315
351.444	612.75
352.097	629.796
352.75 	669.181
353.402 	424.637
354.055        	830.495
354.707 	774.334
355.359 	762.666
356.012	1243.22
356.664   	992.124
357.316	516.697
357.968	899.25
358.62	1230.65
359.272	337.674
359.923 	948.882
360.575	764.788
361.226  	980.528
361.878	935.161
362.529 	605.289
363.181	426.781
363.832	514.559
364.483  	1213.89
365.134     	859.071
365.785	736.134
366.436	812.491
367.086 	1302.88
367.737 	809.313
368.387	921.434
369.038	609.553
369.688	1591.6
370.339	685.134
370.989 	1116.3
371.639	570.095
372.289   	532.726
372.939   	660.669
373.589 	672.372
374.238       	291.404
374.888   	893.966
375.537  	397.824
376.187 	956.269
376.836  	681.944
377.486   	670.245
378.135      	760.544
378.784 	696.829
379.433   	608.487
380.082   	1156.2
380.731  	571.162
381.379 	656.412
382.028  	1223.32
382.676	1381.24
383.325   	626.6
383.973	705.331
384.622	866.476
385.27 	1295.55
385.918	763.727
386.566  	924.603
387.214 	789.178
387.861	1119.45
388.509	719.143
389.157 	545.543
389.804  	921.434
390.452	635.121
391.099 	918.266
391.746	411.77
392.393	253.689
393.04	440.714
393.687	756.3
394.334	414.987
394.981  	1182.43
395.628 	835.789
396.274 	555.153
396.921 	275.247
397.567 	608.487
398.214  	662.797
398.86	663.861
399.506 	372.06
400.152	408.552
400.798  	1132.06
401.444 	656.412
402.089	710.644
402.735	362.393
403.38 	1229.61
404.026    	841.081
404.671 	775.394
405.316 	701.08
405.962 	1252.65
406.607	938.328
407.252	864.36
407.896      	368.838
408.541   	1384.37
409.186  	757.361
409.83	693.64
410.475  	520.972
411.119 	235.352
411.764 	820.965
412.408	166.212
413.052  	947.827
413.696 	715.956
414.34 	348.424
414.984 	573.296
415.627 	610.618
416.271  	629.796
416.914 	527.384
417.558	784.937
418.201	835.789
418.844 	766.909
419.487	1051.11
420.13 	573.296
420.773	351.648
421.416  	504.937
422.059	609.553
422.701 	608.487
423.344   	337.674
423.986	595.695
424.629	511.352
425.271    	330.147
425.913	1100.54
426.555 	714.894
427.197	599.959
427.839     	519.903
428.481	1094.23
429.122 	907.703
429.764	553.018
430.405 	871.764
431.047	294.635
431.688   	882.338
432.329	408.552
432.97 	-7.4015
433.611    	127.245
434.252	685.134
434.892 	780.696
435.533 	766.909
436.174	1426.1
436.814	1449.04
437.454	251.532
438.095 	594.628
438.735	756.3
439.375 	908.759
440.015 	581.831
440.654  	1053.21
441.294 	1093.18
441.934	1174.04
442.573	700.017
443.213	387.091
443.852 	416.059
444.491     	882.338
445.13 	673.436
445.769	943.606
446.408      	614.881
447.047  	688.324
447.686 	639.38
448.324	482.474
448.963	290.328
449.601  	884.452
450.239	546.611
450.878	641.51
451.516  	662.797
452.154	1331.1
452.792	887.624
453.429 	732.949
454.067  	1658.06
454.705    	476.053
455.342   	858.013
455.979 	805.075
456.617	968.928
457.254	770.092
457.891   	938.328
458.528	273.091
459.165	807.194
459.801	1147.81
460.438    	678.754
461.075 	577.564
461.711        	144.57
462.347	680.881
462.983 	417.132
463.62 	152.147
464.256 	793.418
464.891	706.394
465.527	251.532
466.163 	463.207
466.798	409.625
467.434  	305.401
468.069     	539.135
468.705    	398.897
469.34	658.541
469.975 	845.315
470.61  	518.834
471.245 	811.432
471.879	368.838
472.514   	805.075
473.148        	357.021
473.783  	656.412
474.417 	192.159
475.051	1199.21
475.685	483.544
476.319	455.711
476.953 	1045.84
477.587 	618.078
478.221	579.698
478.854 	102.321
479.488 	829.436
480.121       	1276.72
480.754 	-80.4397
481.387   	773.273
482.02 	890.795
482.653 	1325.88
483.286     	364.542
483.919	702.143
484.551 	235.352
485.184 	753.117
485.816  	455.711
486.449 	877.051
487.081  	1088.97
487.713 	646.833
488.345 	909.815
488.976	892.909
489.608	823.083
490.24 	805.075
490.871 	471.772
491.503   	823.083
492.134	255.845
492.765    	854.839
493.396 	712.769
494.027   	580.764
494.658   	1243.22
495.289  	1295.55
495.919  	239.667
496.55     	69.7769
497.18	688.324
497.81 	1124.7
498.441   	378.503
499.071 	608.487
499.701    	896.079
500.331 	779.636
500.96 	532.726
501.59 	504.937
502.219	567.961
502.849 	1147.81
503.478 	395.678
504.107 	533.794
504.736      	930.938
505.365 	381.724
505.994      	977.364
506.623 	367.764
507.251    	863.302
507.88	353.797
508.508 	565.827
509.137 	835.789
509.765 	457.853
510.393 	439.642
511.021 	435.356
511.649   	407.479
512.276     	833.671
512.904 	421.421
513.531   	669.181
514.159 	727.64
514.786     	564.759
515.413 	386.018
516.04 	349.499
516.667   	814.61
517.294  	1073.2
517.921  	1065.84
518.547    	807.194
519.174      	814.61
519.8  	224.56
520.426 	753.117
521.053 	838.964
521.679  	542.339
522.305 	664.925
522.93  	1254.74
523.556   	340.899
524.182  	303.248
524.807 	277.401
525.432  	823.083
526.057  	582.898
526.683     	395.678
527.308     	993.178
527.932 	388.165
528.557 	829.436
529.182   	525.247
529.806   	311.858
530.431  	192.159
531.055  	539.135
531.679 	196.481
532.303  	1233.8
532.927    	594.628
533.551 	464.278
534.175     	527.384
534.798 	957.324
535.422         	300.018
536.045 	348.424
536.668    	397.824
537.292  	695.766
537.915 	950.993
538.538 	528.452
539.16  	560.49
539.783   	840.023
540.406   	1054.26
541.028  	541.271
541.65  	863.302
542.272     	648.962
542.895       	1202.36
543.516  	653.22
544.138  	742.504
544.76   	972.092
545.382 	799.777
546.003 	247.218
546.625    	532.726
547.246  	854.839
547.867 	780.696
548.488 	557.288
549.109  	286.019
549.73 	343.049
550.35  	549.814
550.971      	489.964
551.591  	582.898
552.211    	947.827
552.832  	740.381
553.452 	658.541
554.072  	522.041
554.691 	1286.14
555.311  	477.123
555.931 	266.625
556.55 	704.268
557.17  	712.769
557.789 	764.788
558.408  	399.97
559.027    	602.091
559.646   	594.628
560.264 	756.3
560.883   	796.597
561.502  	487.824
562.12  	770.092
562.738 	1200.26
563.356 	-15.0228
563.974   	279.556
564.592    	181.351
565.21 	250.454
565.828 	593.562
566.445 	571.162
567.063  	598.893
567.68   	1073.2
568.297   	406.407
568.914  	559.423
569.531 	987.908
570.148  	1087.92
570.765  	388.165
571.381   	321.542
571.998    	1201.31
572.614 	1014.25
573.23 	750.995
573.846 	218.083
574.462  	669.181
575.078   	1030.05
575.694   	232.115
576.309 	740.381
576.925   	1058.47
577.54  	737.196
578.155  	334.448
578.77 	601.025
579.385 	179.188
580                	406.407
580.615    	388.165
581.229 	711.706
581.844          	590.363
582.458  	1361.4
583.072 	432.141
583.686  	410.697
584.3  	612.75
584.914 	845.315
585.528  	377.429
586.142 	309.706
586.755  	-9.57879
587.368 	76.2889
587.982  	800.836
588.595 	645.768
589.208  	738.258
589.82 	1318.56
590.433  	833.671
591.046  	782.817
591.658 	681.944
592.271  	939.384
592.883        	214.843
593.495 	339.824
594.107 	512.421
594.719          	995.286
595.33  	717.018
595.942  	759.484
596.553   	199.723
597.165   	886.566
597.776  	314.01
598.387  	471.772
598.998      	1092.13
599.609    	296.788
600.22  	437.499
600.83  	773.273
601.441  	555.153
602.051  	-40.0799
602.661     	799.777
603.271 	386.018
603.881   	956.269
604.491   	435.356
605.101     	760.544
605.71   	515.628
606.32   	1012.15
606.929 	1201.31
607.538     	507.076
608.147  	331.222
608.756  	647.897
609.365    	740.381
609.973 	933.05
610.582 	312.934
611.19 	237.51
611.799 	621.274
612.407    	594.628
613.015  	535.931
613.623  	677.69
614.23 	822.024
614.838  	685.134
615.446   	670.245
616.053 	158.639
616.66       	955.214
617.267 	459.995
617.874   	727.64
618.481  	1038.47
619.088  	566.894
619.694     	443.928
620.301 	488.894
620.907 	374.208
621.513  	433.213
622.119   	620.208
622.725   	71.9477
623.331  	762.666
623.937 	805.075
624.542  	608.487
625.148 	409.625
625.753  	223.48
626.358 	1029
626.963  	467.49
627.568   	741.442
628.173     	883.395
628.777  	1257.88
629.382  	248.297
629.986      	492.103
630.591   	1199.21
631.195 	509.214
631.799   	637.251
632.402  	485.684
633.006   	927.77
633.61  	467.49
634.213   	561.558
634.816       	858.013
635.42  	971.037
636.023 	886.566
636.625    	807.194
637.228   	452.498
637.831  	464.278
638.433  	845.315
639.036  	820.965
639.638  	746.75
640.24  	1323.79
640.842 	1243.22
641.444  	523.109
642.046   	392.458
642.647   	924.603
643.249  	1265.21
643.85 	209.444
644.451 	223.48
645.052  	553.018
645.653 	545.543
646.254  	294.635
646.854  	500.66
647.455 	1408.37
648.055  	764.788
648.656   	298.942
649.256   	495.312
649.856 	338.749
650.455   	1025.84
651.055  	680.881
651.655   	535.931
652.254 	648.962
652.853   	1378.11
653.452   	525.247
654.051  	440.714
654.65  	811.432
655.249     	870.706
655.848  	334.448
656.446   	731.887
657.044 	-25.9142
657.643      	1086.87
658.241  	766.909
658.839  	631.926
659.436   	557.288
660.034   	929.882
660.631 	556.22
661.229   	856.955
661.826  	1220.18
662.423   	737.196
663.02    	760.544
663.617  	840.023
664.214  	440.714
664.81    	675.563
665.406   	12.186
666.003 	681.944
666.599   	603.157
667.195    	235.352
667.791 	288.174
668.386   	695.766
668.982  	1218.08
669.577 	245.061
670.173  	667.053
670.768 	424.637
671.363  	621.274
671.958   	1405.24
672.552   	665.989
673.147  	847.432
673.742  	49.1454
674.336        	712.769
674.93 	545.543
675.524   	304.324
676.118  	197.562
676.712  	554.085
677.305   	641.51
677.899    	260.158
678.492  	305.401
679.086 	1103.69
679.679  	390.312
680.271      	519.903
680.864     	477.123
681.457  	-30.2721
682.049  	561.558
682.642 	783.877
683.234  	1059.52
683.826 	55.6623
684.418 	562.625
685.01 	559.423
685.602 	1022.68
686.193  	594.628
686.784   	675.563
687.376  	-22.6463
687.967  	588.23
688.558 	950.993
689.148        	594.628
689.739  	423.565
690.33  	315.086
690.92  	885.509
691.51    	186.755
692.1 	926.714
692.69  	1196.07
693.28  	606.355
693.87   	772.213
694.459  	151.065
695.049 	659.605
695.638 	391.385
696.227    	515.628
696.816  	647.897
697.405  	1059.52
697.994  	610.618
698.582 	693.64
699.17    	214.843
699.759 	226.718
700.347  	632.991
700.935 	476.053
701.523  	670.245
702.11  	921.434
702.698    	387.091
703.285       	583.964
703.872 	411.77
704.459    	122.912
705.046    	58.9202
705.633  	254.767
706.22  	689.387
706.806   	1085.82
707.393  	1158.3
707.979    	187.836
708.565  	477.123
709.151  	743.565
709.737 	389.238
710.322  	309.706
710.908 	202.963
711.493 	466.419
712.078  	1146.76
712.663  	637.251
713.248  	774.334
713.833 	247.218
714.418 	1200.26
715.002 	228.877
715.587 	458.924
716.171  	1206.55
716.755 	178.107
717.339 	441.785
717.922 	51.3179
718.506 	560.49
719.089  	962.599
719.673 	63.2634
720.256  	372.06
720.839 	887.624
721.422 	960.489
722.005  	661.733
722.587  	180.27
723.169 	651.091
723.752   	866.476
724.334  	659.605
724.916  	617.012
725.498  	858.013
726.079   	1334.24
726.661   	207.284
727.242  	128.328
727.823   	1040.58
728.405 	1051.11
728.985  	765.849
729.566  	433.213
730.147    	1115.25
730.727  	1014.25
731.308  	451.427
731.888   	518.834
732.468   	636.186
733.048 	536.999
733.628   	467.49
734.207   	766.909
734.787 	674.499
735.366   	226.718
735.945 	2.39409
736.524 	504.937
737.103 	883.395
737.682      	169.456
738.26 	486.754
738.839   	452.498
739.417  	827.319
739.995 	206.204
740.573  	455.711
741.151   	693.64
741.728   	146.735
742.306  	541.271
742.883 	171.619
743.46  	835.789
744.037   	618.078
744.614     	829.436
745.191 	529.521
745.768      	480.334
746.344   	506.006
746.92  	1066.89
747.496 	559.423
748.072  	672.372
748.648   	495.312
749.224   	1041.63
749.799 	325.845
750.375   	334.448
750.95   	606.355
751.525  	897.136
752.1  	424.637
752.675  	432.141
753.249 	364.542
753.824 	512.421
754.398  	381.724
754.972 	274.169
755.546 	884.452
756.12 	997.394
756.694  	501.729
757.267 	525.247
757.841 	609.553
758.414 	1289.28
758.987  	683.008
759.56   	707.456
760.133 	1.30587
760.705  	1078.46
761.278  	381.724
761.85  	581.831
762.422   	191.078
762.994      	1220.18
763.566 	316.162
764.138     	574.363
764.709 	524.178
765.281   	775.394
765.852   	274.169
766.423     	433.213
766.994  	1066.89
767.564      	1121.55
768.135 	221.321
768.706    	553.018
769.276 	754.178
769.846   	931.994
770.416  	151.065
770.986  	781.757
771.555   	1071.1
772.125  	712.769
772.694  	238.588
773.263   	452.498
773.833    	1222.27
774.401     	482.474
774.97  	643.639
775.539  	405.334
776.107  	631.926
776.675    	1000.56
777.243   	333.373
777.811  	720.205
778.379   	403.188
778.947    	707.456
779.514  	201.883
780.082    	419.276
780.649   	777.515
781.216  	370.986
781.783  	539.135
782.349  	598.893
782.916   	296.788
783.482 	1255.79
784.048    	446.071
784.614  	399.97
785.18 	481.404
785.746  	900.306
786.312     	91.4773
786.877      	643.639
787.442  	218.083
788.007    	1175.09
788.572      	612.75
789.137 	673.436
789.702    	665.989
790.266    	389.238
790.83  	620.208
791.395       	631.926
791.958    	706.394
792.522  	593.562
793.086 	555.153
793.65  	441.785
794.213 	82.7992
794.776  	172.701
795.339 	502.798
795.902 	538.067
796.465   	1179.29
797.027 	855.897
797.59 	575.43
798.152  	281.711
798.714 	274.169
799.276 	626.6
799.837    	380.65
800.399  	330.147
800.96    	347.349
801.522 	1117.35
802.083   	580.764
802.644  	348.424
803.204  	687.261
803.765 	493.173
804.326 	488.894
804.886 	322.618
805.446  	1368.71
806.006      	936.217
806.566   	222.401
807.125 	191.078
807.685 	999.502
808.244 	1081.61
808.803    	730.825
809.362  	581.831
809.921  	140.24
810.48 	1072.15
811.038  	327.996
811.596 	743.565
812.155  	159.721
812.713 	973.146
813.271     	472.842
813.828 	396.751
814.386     	747.811
814.943   	1198.16
815.5   	431.069
816.057  	120.745
816.614  	511.352
817.171 	788.118
817.727 	643.639
818.284    	301.095
818.84  	996.34
819.396    	1182.43
819.952 	551.95
820.508   	756.3
821.063  	895.022
821.618 	1047.95
822.174  	542.339
822.729   	604.223
823.284  	597.827
823.838 	918.266
824.393 	677.69
824.947      	541.271
825.501    	992.124
826.056  	797.657
826.609 	127.245
827.163  	481.404
827.717  	763.727
828.27 	438.571
828.823  	558.355
829.376  	589.297
829.929  	41.5403
830.482  	582.898
831.035  	466.419
831.587 	226.718
832.139    	448.214
832.691 	561.558
833.243     	-17.2007
833.795 	231.035
834.346   	815.669
834.898  	630.861
835.449   	395.678
836  	210.524
836.551   	1022.68
837.102  	778.576
837.652  	638.315
838.203    	455.711
838.753  	1131.01
839.303  	921.434
839.853   	377.429
840.402  	36.1068
840.952  	225.639
841.501 	399.97
842.051 	429.997
842.6      	759.484
843.149  	1022.68
843.697 	656.412
844.246  	511.352
844.794  	764.788
845.342    	982.637
845.89 	729.763
846.438 	546.611
846.986    	237.51
847.533 	829.436
848.081  	236.431
848.628     	548.747
849.175  	236.431
849.722     	274.169
850.268  	1195.02
850.815 	307.553
851.361  	519.903
851.907  	251.532
852.453   	925.659
852.999  	452.498
853.545  	381.724
854.09 	964.708
854.636  	1044.79
855.181     	451.427
855.726  	685.134
856.27  	818.846
856.815  	903.476
857.359  	-45.5302
857.904    	550.882
858.448  	423.565
858.992  	792.358
859.536  	592.496
860.079     	466.419
860.623    	646.833
861.166   	506.006
861.709  	485.684
862.252  	485.684
862.795  	411.77
863.337  	810.372
863.879    	625.535
864.422   	563.692
864.964   	354.872
865.505  	969.982
866.047  	455.711
866.589  	597.827
867.13  	340.899
867.671  	210.524
868.212  	569.028
868.753  	436.428
869.294   	672.372
869.834   	710.644
870.375    	502.798
870.915    	603.157
871.455    	1030.05
871.994  	500.66
872.534   	264.47
873.073  	493.173
873.613   	317.238
874.152   	448.214
874.691  	493.173
875.229  	374.208
875.768  	867.533
876.306  	754.178
876.844   	373.134
877.382  	348.424
877.92  	837.906
878.458     	487.824
878.995  	634.056
879.533  	711.706
880.07  	865.418
880.607  	928.826
881.144   	577.564
881.68   	379.577
882.217  	642.574
882.753   	838.964
883.289   	423.565
883.825     	529.521
884.361    	548.747
884.896      	174.864
885.432   	227.798
885.967   	278.479
886.502  	548.747
887.037  	875.994
887.572  	87.1386
888.106   	557.288
888.641  	545.543
889.175  	406.407
889.709  	390.312
890.242   	566.894
890.776  	999.502
891.309  	456.782
891.843     	369.912
892.376  	539.135
892.909    	914.041
893.442  	659.605
893.974  	497.451
894.506    	61.0919
895.039    	424.637
895.571   	38.2803
896.102  	408.552
896.634  	321.542
897.166  	651.091
897.697  	403.188
898.228    	477.123
898.759  	546.611
899.29  	995.286
899.82        	883.395
900.351  	676.627
900.881  	525.247
901.411   	992.124
901.941  	1022.68
902.47   	739.319
903                	508.145
903.529  	186.755
904.058  	316.162
904.588  	437.499
905.116     	374.208
905.645   	700.017
906.173    	402.115
906.702  	595.695
907.23  	494.242
907.757  	773.273
908.285       	852.723
908.813   	524.178
909.34  	511.352
909.867        	973.146
910.394  	906.646
910.921  	685.134
911.448  	722.329
911.974  	117.495
912.5   	812.491
913.026     	579.698
913.552    	114.244
914.078   	377.429
914.603  	-47.7107
915.129  	526.315
915.654  	504.937
916.179   	917.21
916.704  	496.382
917.228   	87.1386
917.753   	617.012
918.277  	213.764
918.801   	1140.46
919.325   	554.085
919.849     	401.043
920.372     	641.51
920.896     	889.738
921.419  	635.121
921.942  	623.405
922.464    	587.164
922.987  	802.956
923.509    	535.931
924.032  	678.754
924.554  	443.928
925.075   	713.831
925.597    	596.761
926.119    	795.537
926.64   	704.268
927.161  	353.797
927.682  	-113.21
928.203  	636.186
928.723  	209.444
929.244    	1158.3
929.764   	321.542
930.284   	209.444
930.804     	723.391
931.323  	1215.98
931.843     	525.247
932.362   	590.363
932.881   	571.162
933.4  	174.864
933.919   	665.989
934.437   	381.724
934.956    	437.499
935.474  	514.559
935.992  	325.845
936.51   	362.393
937.027   	1055.31
937.545  	791.298
938.062   	522.041
938.579  	424.637
939.096      	1037.42
939.612     	1016.36
940.129  	469.631
940.645    	800.836
941.161     	485.684
941.677  	676.627
942.193  	306.477
942.708  	481.404
943.224     	286.019
943.739  	922.49
944.254  	836.847
944.769     	683.008
945.283      	1168.8
945.798   	481.404
946.312   	700.017
946.826  	347.349
947.34  	489.964
947.853  	408.552
948.367  	445
948.88   	310.782
949.393  	880.223
949.906  	397.824
950.419  	368.838
950.931  	621.274
951.444   	871.764
951.956   	712.769
952.468     	92.5619
952.979     	352.723
953.491  	197.562
954.002    	454.64
954.514      	67.6059
955.025   	410.697
955.536  	294.635
956.046   	1051.11
956.557  	503.868
957.067  	383.871
957.577  	805.075
958.087   	153.229
958.596   	-29.1825
959.106  	778.576
959.615  	834.73
960.124   	882.338
960.633  	136.992
961.142   	206.204
961.65      	654.284
962.159    	824.142
962.667  	-217.265
963.175     	464.278
963.683     	-132.893
964.19   	218.083
964.698   	8.92246
965.205  	589.297
965.712   	635.121
966.219   	601.025
966.725    	350.573
967.232  	483.544
967.738    	1079.51
968.244  	407.479
968.75  	254.767
969.255  	414.987
969.761     	570.095
970.266  	10.0104
970.771  	547.679
971.276    	408.552
971.781  	482.474
972.285  	942.55
972.789  	426.781
973.293    	482.474
973.797    	347.349
974.301  	698.954
974.805  	668.117
975.308  	608.487
975.811    	172.701
976.314    	1032.16
976.817  	554.085
977.319     	585.031
977.822  	126.162
978.324    	732.949
978.826  	577.564
979.328  	393.531
979.829     	378.503
980.33  	43.7134
980.832  	-4.1359
981.333  	758.423
981.833    	50.2316
982.334      	508.145
982.834    	48.0591
983.335   	457.853
983.835   	522.041
984.334    	772.213
984.834  	222.401
985.333    	81.7143
985.833   	51.3179
986.332   	1088.97
986.831  	613.815
987.329  	528.452
987.828    	158.639
988.326   	693.64
988.824   	641.51
989.322  	707.456
989.819  	440.714
990.317  	1379.15
990.814   	324.769
991.311   	564.759
991.808    	185.675
992.305  	594.628
992.801    	680.881
993.298   	760.544
993.794   	454.64
994.29    	731.887
994.785       	833.671
995.281  	382.798
995.776  	426.781
996.271    	721.267
996.766   	467.49
997.261  	194.32
997.755   	712.769
998.249  	401.043
998.744  	331.222
999.237  	784.937
999.731  	658.541
1000.22     	858.013
1000.72 	587.164
1001.21       	183.513
1001.7  	206.204
1002.2 	808.253
1002.69 	588.23
1003.18  	262.314
1003.67 	885.509
1004.17 	704.268
1004.66 	450.356
1005.15 	380.65
1005.64  	1147.81
1006.13 	1024.79
1006.62 	459.995
1007.11  	319.39
1007.6 	171.619
1008.09 	472.842
1008.58   	454.64
1009.07 	149.982
1009.56 	-78.2565
1010.05 	795.537
1010.54 	814.61
1011.03  	488.894
1011.52 	394.604
1012.01  	819.906
1012.5    	607.421
1012.99    	548.747
1013.47  	822.024
1013.96 	1232.75
1014.45  	57.8343
1014.94    	319.39
1015.42 	864.36
1015.91 	273.091
1016.4  	434.284
1016.88 	332.298
1017.37  	254.767
1017.86  	880.223
1018.34 	514.559
1018.83 	168.375
1019.31  	-129.612
1019.8 	336.599
1020.29  	394.604
1020.77    	240.746
1021.26 	327.996
1021.74 	745.688
1022.22  	493.173
1022.71 	450.356
1023.19  	439.642
1023.68  	862.244
1024.16 	599.959
1024.64 	921.434
1025.13  	164.048
1025.61 	562.625
1026.09  	499.59
1026.58    	324.769
1027.06    	912.985
1027.54  	889.738
1028.02  	378.503
1028.5 	-45.5302
1028.99  	952.048
1029.47 	1248.46
1029.95 	395.678
1030.43 	88.2234
1030.91  	693.64
1031.39  	-13.9339
1031.87 	579.698
1032.35  	394.604
1032.83  	377.429
1033.31   	967.873
1033.79   	362.393
1034.27 	261.236
1034.75     	362.393
1035.23 	778.576
1035.71   	171.619
1036.18   	413.915
1036.66 	380.65
1037.14 	837.906
1037.62  	384.945
1038.1  	422.493
1038.57  	1289.28
1039.05      	1411.5
1039.53   	306.477
1040  	181.351
1040.48  	752.056
1040.96 	1450.08
1041.43  	467.49
1041.91  	427.853
1042.39    	1209.7
1042.86     	861.187
1043.34  	604.223
1043.81 	144.57
1044.29  	756.3
1044.76 	-10.6675
1045.24  	225.639
1045.55 	1197.12