File: JinData/Spectra_output_0_1736789543.txt
Wavelength [nm]    	Intensity [counts]
344.912	-1694.98
345.565 	-1768.43
346.219	434.499
346.872 	352.938
347.526   	546.825
348.179   	870.918
348.832  	710.856
349.485	817.999
350.138  	884.664
350.791   	687.473
351.444	665.138
352.097	515.842
352.75 	421.635
353.402 	253.904
354.055        	605.502
354.707 	770.304
355.359 	781.969
356.012	1238.2
356.664   	948.038
357.316	484.828
357.968	819.058
358.62	1148.02
359.272	471.986
359.923 	968.084
360.575	841.293
361.226  	859.282
361.878	860.34
362.529 	577.777
363.181	437.714
363.832	483.758
364.483  	1104.95
365.134     	823.294
365.785	661.946
366.436	859.282
367.086 	1383.54
367.737 	934.316
368.387	1048.16
369.038	634.269
369.688	1546.07
370.339	719.355
370.989 	1238.2
371.639	463.421
372.289   	526.529
372.939   	815.881
373.589 	821.176
374.238       	290.543
374.888   	864.572
375.537  	434.499
376.187 	1048.16
376.836  	594.842
377.486   	579.911
378.135      	657.689
378.784 	836
379.433   	652.368
380.082   	1154.31
380.731  	602.305
381.379 	607.634
382.028  	1078.67
382.676	1377.27
383.325   	703.418
383.973	688.537
384.622	821.176
385.27 	1438.82
385.918	830.707
386.566  	941.706
387.214 	817.999
387.861	1059.73
388.509	868.802
389.157 	615.094
389.804  	1009.2
390.452	650.239
391.099 	893.12
391.746	419.491
392.393	373.349
393.04	418.419
393.687	797.869
394.334	634.269
394.981  	1144.87
395.628 	865.629
396.274 	556.434
396.921 	251.748
397.567 	603.371
398.214  	645.981
398.86	722.542
399.506 	392.673
400.152	523.323
400.798  	1078.67
401.444 	754.39
402.089	930.093
402.735	428.068
403.38 	1177.4
404.026    	953.314
404.671 	939.595
405.316 	772.425
405.962 	1121.76
406.607	820.117
407.252	899.461
407.896      	346.489
408.541   	1398.15
409.186  	1012.36
409.83	635.334
410.475  	489.108
411.119 	222.617
411.764 	929.037
412.408	145.869
413.052  	945.927
413.696 	637.464
414.34 	349.714
414.984 	606.568
415.627 	657.689
416.271  	527.597
416.914 	653.432
417.558	718.293
418.201	817.999
418.844 	807.406
419.487	1119.66
420.13 	670.457
420.773	393.746
421.416  	525.46
422.059	702.355
422.701 	572.443
423.344   	377.644
423.986	640.658
424.629	707.669
425.271    	252.826
425.913	1184.74
426.555 	548.96
427.197	784.089
427.839     	642.787
428.481	1026.05
429.122 	814.821
429.764	535.076
430.405 	838.117
431.047	359.385
431.688   	798.929
432.329	479.478
432.97 	-1.74144
433.611    	141.539
434.252	703.418
434.892 	673.648
435.533 	901.574
436.174	1238.2
436.814	1377.27
437.454	319.605
438.095 	573.51
438.735	780.908
439.375 	992.335
440.015 	636.399
440.654  	1176.35
441.294 	1050.26
441.934	1204.66
442.573	794.689
443.213	435.57
443.852 	611.897
444.491     	901.574
445.13 	732.099
445.769	1141.72
446.408      	611.897
447.047  	594.842
447.686 	547.892
448.324	513.704
448.963	292.697
449.601  	1095.49
450.239	749.084
450.878	645.981
451.516  	569.242
452.154	1174.25
452.792	974.412
453.429 	781.969
454.067  	1674.86
454.705    	574.577
455.342   	842.351
455.979 	660.882
456.617	676.839
457.254	911.083
457.891   	825.412
458.528	290.543
459.165	858.224
459.801	1026.05
460.438    	732.099
461.075 	685.347
461.711        	94.9477
462.347	455.925
462.983 	442
463.62 	127.462
464.256 	717.231
464.891	663.01
465.527	217.219
466.163 	526.529
466.798	644.917
467.434  	332.513
468.069     	559.636
468.705    	525.46
469.34	825.412
469.975 	849.76
470.61  	555.366
471.245 	1034.47
471.879	371.201
472.514   	612.963
473.148        	208.58
473.783  	616.16
474.417 	185.891
475.051	1317.72
475.685	478.408
476.319	335.739
476.953 	1000.77
477.587 	560.704
478.221	618.291
478.854 	120.962
479.488 	686.41
480.121       	1206.76
480.754 	-158.941
481.387   	757.574
482.02 	902.631
482.653 	1268.56
483.286     	437.714
483.919	799.988
484.551 	195.617
485.184 	701.293
485.816  	503.012
486.449 	937.483
487.081  	1096.54
487.713 	654.497
488.345 	880.435
488.976	874.09
489.608	780.908
490.24 	740.593
490.871 	550.028
491.503   	808.465
492.134	236.646
492.765    	846.585
493.396 	745.9
494.027   	550.028
494.658   	1212
495.289  	1297.86
495.919  	155.61
496.55     	125.295
497.18	803.167
497.81 	1016.57
498.441   	512.635
499.071 	640.658
499.701    	870.918
500.331 	691.726
500.96 	504.082
501.59 	664.074
502.219	534.008
502.849 	1171.1
503.478 	467.704
504.107 	309.921
504.736      	882.549
505.365 	501.943
505.994      	915.308
506.623 	421.635
507.251    	921.646
507.88	481.618
508.508 	727.852
509.137 	900.518
509.765 	362.608
510.393 	314.225
511.021 	501.943
511.649   	392.673
512.276     	892.063
512.904 	289.466
513.531   	711.919
514.159 	689.6
514.786     	429.139
515.413 	506.22
516.04 	428.068
516.667   	879.377
517.294  	1169.01
517.921  	887.835
518.547    	1047.11
519.174      	781.969
519.8  	248.512
520.426 	767.122
521.053 	891.006
521.679  	660.882
522.305 	677.903
522.93  	1268.56
523.556   	394.819
524.182  	331.437
524.807 	176.161
525.432  	827.53
526.057  	534.008
526.683     	336.814
527.308     	1027.1
527.932 	531.871
528.557 	694.915
529.182   	576.71
529.806   	263.607
530.431  	334.663
531.055  	508.358
531.679 	152.363
532.303  	1285.3
532.927    	623.618
533.551 	670.457
534.175     	607.634
534.798 	881.492
535.422         	290.543
536.045 	193.456
536.668    	639.593
537.292  	582.044
537.915 	922.702
538.538 	595.908
539.16  	616.16
539.783   	795.749
540.406   	988.119
541.028  	475.197
541.65  	887.835
542.272     	741.655
542.895       	1189.99
543.516  	635.334
544.138  	826.471
544.76   	1067.1
545.382 	803.167
546.003 	157.774
546.625    	568.174
547.246  	929.037
547.867 	707.669
548.488 	494.456
549.109  	238.804
549.73 	294.85
550.35  	589.51
550.971      	622.552
551.591  	710.856
552.211    	873.033
552.832  	736.346
553.452 	686.41
554.072  	710.856
554.691 	1231.91
555.311  	525.46
555.931 	167.51
556.55 	695.978
557.17  	754.39
557.789 	842.351
558.408  	550.028
559.027    	691.726
559.646   	488.038
560.264 	712.981
560.883   	822.235
561.502  	644.917
562.12  	766.061
562.738 	1208.86
563.356 	192.375
563.974   	333.588
564.592    	381.939
565.21 	419.491
565.828 	580.977
566.445 	725.728
567.063  	496.595
567.68   	869.86
568.297   	456.996
568.914  	577.777
569.531 	880.435
570.148  	1030.26
570.765  	572.443
571.381   	242.041
571.998    	1134.37
572.614 	1026.05
573.23 	703.418
573.846 	232.33
574.462  	673.648
575.078   	925.87
575.694   	318.529
576.309 	699.167
576.925   	978.63
577.54  	842.351
578.155  	431.283
578.77 	562.838
579.385 	83.0162
580                	359.385
580.615    	657.689
581.229 	793.63
581.844          	482.688
582.458  	1293.67
583.072 	505.151
583.686  	359.385
584.3  	756.513
584.914 	735.285
585.528  	320.681
586.142 	167.51
586.755  	104.706
587.368 	195.617
587.982  	864.572
588.595 	643.852
589.208  	793.63
589.82 	1335.49
590.433  	858.224
591.046  	937.483
591.658 	697.041
592.271  	825.412
592.883        	290.543
593.495 	279.772
594.107 	496.595
594.719          	1079.72
595.33  	720.417
595.942  	720.417
596.553   	347.564
597.165   	875.148
597.776  	333.588
598.387  	550.028
598.998      	1040.79
599.609    	277.617
600.22  	364.756
600.83  	705.543
601.441  	447.357
602.051  	68.9085
602.661     	701.293
603.271 	593.775
603.881   	802.108
604.491   	420.563
605.101     	726.79
605.71   	445.214
606.32   	1295.76
606.929 	1093.39
607.538     	561.771
608.147  	373.349
608.756  	838.117
609.365    	814.821
609.973 	921.646
610.582 	365.831
611.19 	152.363
611.799 	622.552
612.407    	579.911
613.015  	674.712
613.623  	654.497
614.23 	880.435
614.838  	798.929
615.446   	752.268
616.053 	140.457
616.66       	745.9
617.267 	460.209
617.874   	719.355
618.481  	955.425
619.088  	641.723
619.694     	474.127
620.301 	552.163
620.907 	490.177
621.513  	621.487
622.119   	862.456
622.725   	142.622
623.331  	788.33
623.937 	886.778
624.542  	746.962
625.148 	384.086
625.753  	184.81
626.358 	1009.2
626.963  	507.289
627.568   	895.234
628.173     	777.727
628.777  	1413.8
629.382  	113.377
629.986      	438.785
630.591   	1207.81
631.195 	470.915
631.799   	556.434
632.402  	602.305
633.006   	999.713
633.61  	460.209
634.213   	583.111
634.816       	712.981
635.42  	1107.05
636.023 	819.058
636.625    	789.39
637.228   	542.553
637.831  	467.704
638.433  	812.703
639.036  	929.037
639.638  	543.621
640.24  	1399.19
640.842 	1073.41
641.444  	461.28
642.046   	442
642.647   	871.975
643.249  	1123.86
643.85 	350.788
644.451 	466.633
645.052  	491.247
645.653 	583.111
646.254  	356.161
646.854  	604.437
647.455 	1389.8
648.055  	842.351
648.656   	454.854
649.256   	631.074
649.856 	205.34
650.455   	865.629
651.055  	825.412
651.655   	576.71
652.254 	758.635
652.853   	1292.63
653.452   	463.421
654.051  	512.635
654.65  	856.108
655.249     	660.882
655.848  	94.9477
656.446   	697.041
657.044 	66.7374
657.643      	1053.42
658.241  	760.757
658.839  	660.882
659.436   	540.417
660.034   	870.918
660.631 	645.981
661.229   	980.739
661.826  	978.63
662.423   	795.749
663.02    	793.63
663.617  	763.939
664.214  	455.925
664.81    	707.669
665.406   	-111.899
666.003 	787.27
666.599   	758.635
667.195    	56.9655
667.791 	367.979
668.386   	848.701
668.982  	1200.47
669.577 	226.934
670.173  	626.813
670.768 	599.106
671.363  	763.939
671.958   	1475.3
672.552   	486.968
673.147  	906.857
673.742  	118.795
674.336        	788.33
674.93 	416.274
675.524   	299.157
676.118  	186.971
676.712  	562.838
677.305   	594.842
677.899    	439.857
678.492  	166.428
679.086 	1176.35
679.679  	312.073
680.271      	465.563
680.864     	550.028
681.457  	54.7934
682.049  	442
682.642 	842.351
683.234  	919.533
683.826 	61.309
684.418 	480.548
685.01 	591.643
685.602 	1028.16
686.193  	659.818
686.784   	568.174
687.376  	28.7153
687.967  	170.754
688.558 	929.037
689.148        	625.748
689.739  	414.129
690.33  	327.135
690.92  	899.461
691.51    	205.34
692.1 	1008.14
692.69  	1336.54
693.28  	419.491
693.87   	728.914
694.459  	376.57
695.049 	591.643
695.638 	399.111
696.227    	598.04
696.816  	666.202
697.405  	1179.5
697.994  	780.908
698.582 	805.287
699.17    	277.617
699.759 	154.527
700.347  	686.41
700.935 	598.04
701.523  	883.606
702.11  	935.372
702.698    	265.763
703.285       	505.151
703.872 	308.845
704.459    	131.794
705.046    	143.704
705.633  	252.826
706.22  	868.802
706.806   	1093.39
707.393  	1073.41
707.979    	251.748
708.565  	522.254
709.151  	875.148
709.737 	474.127
710.322  	386.233
710.908 	238.804
711.493 	438.785
712.078  	1155.36
712.663  	543.621
713.248  	698.104
713.833 	264.685
714.418 	1383.54
715.002 	135.043
715.587 	408.766
716.171  	1218.29
716.755 	125.295
717.339 	556.434
717.922 	13.4913
718.506 	617.225
719.089  	942.761
719.673 	37.4109
720.256  	400.184
720.839 	1034.47
721.422 	994.443
722.005  	654.497
722.587  	291.62
723.169 	608.7
723.752   	898.404
724.334  	688.537
724.916  	653.432
725.498  	863.514
726.079   	1304.13
726.661   	248.512
727.242  	207.5
727.823   	1119.66
728.405 	899.461
728.985  	900.518
729.566  	546.825
730.147    	1141.72
730.727  	981.793
731.308  	458.067
731.888   	514.773
732.468   	575.643
733.048 	451.641
733.628   	603.371
734.207   	809.525
734.787 	522.254
735.366   	128.545
735.945 	76.5058
736.524 	694.915
737.103 	833.883
737.682      	17.8419
738.26 	458.067
738.839   	364.756
739.417  	762.878
739.995 	309.921
740.573  	606.568
741.151   	859.282
741.728   	301.31
742.306  	584.177
742.883 	399.111
743.46  	865.629
744.037   	677.903
744.614     	776.667
745.191 	560.704
745.768      	686.41
746.344   	272.229
746.92  	980.739
747.496 	506.22
748.072  	777.727
748.648   	582.044
749.224   	1098.64
749.799 	287.312
750.375   	285.158
750.95   	632.139
751.525  	850.818
752.1  	434.499
752.675  	385.159
753.249 	488.038
753.824 	526.529
754.398  	461.28
754.972 	498.735
755.546 	669.393
756.12 	884.664
756.694  	474.127
757.267 	619.356
757.841 	631.074
758.414 	1188.94
758.987  	667.266
759.56   	750.146
760.133 	90.6096
760.705  	974.412
761.278  	473.056
761.85  	727.852
762.422   	156.692
762.994      	1350.12
763.566 	512.635
764.138     	488.038
764.709 	515.842
765.281   	833.883
765.852   	341.114
766.423     	285.158
766.994  	1023.94
767.564      	1076.57
768.135 	216.139
768.706    	645.981
769.276 	656.625
769.846   	704.481
770.416  	173.998
770.986  	682.157
771.555   	1077.62
772.125  	555.366
772.694  	252.826
773.263   	509.428
773.833    	1315.63
774.401     	517.979
774.97  	689.6
775.539  	333.588
776.107  	700.23
776.675    	861.398
777.243   	279.772
777.811  	626.813
778.379   	473.056
778.947    	807.406
779.514  	68.9085
780.082    	473.056
780.649   	642.787
781.216  	264.685
781.783  	652.368
782.349  	712.981
782.916   	480.548
783.482 	1122.81
784.048    	466.633
784.614  	498.735
785.18 	575.643
785.746  	861.398
786.312     	208.58
786.877      	586.311
787.442  	251.748
788.007    	1101.8
788.572      	761.817
789.137 	600.172
789.702    	649.175
790.266    	437.714
790.83  	728.914
791.395       	748.023
791.958    	669.393
792.522  	664.074
793.086 	574.577
793.65  	593.775
794.213 	162.101
794.776  	49.3626
795.339 	671.521
795.902 	352.938
796.465   	1155.36
797.027 	949.093
797.59 	554.299
798.152  	340.039
798.714 	432.355
799.276 	482.688
799.837    	651.304
800.399  	345.414
800.96    	435.57
801.522 	1137.52
802.083   	664.074
802.644  	423.779
803.204  	702.355
803.765 	656.625
804.326 	594.842
804.886 	414.129
805.446  	1406.49
806.006      	1061.84
806.566   	152.363
807.125 	110.126
807.685 	1095.49
808.244 	1119.66
808.803    	711.919
809.362  	489.108
809.921  	146.952
810.48 	1028.16
811.038  	456.996
811.596 	735.285
812.155  	97.1165
812.713 	1050.26
813.271     	445.214
813.828 	577.777
814.386     	723.604
814.943   	1264.37
815.5   	448.428
816.057  	301.31
816.614  	491.247
817.171 	732.099
817.727 	691.726
818.284    	313.149
818.84  	1040.79
819.396    	1265.42
819.952 	526.529
820.508   	868.802
821.063  	848.701
821.618 	908.97
822.174  	637.464
822.729   	687.473
823.284  	630.009
823.838 	773.485
824.393 	918.477
824.947      	443.071
825.501    	904.744
826.056  	666.202
826.609 	88.4402
827.163  	499.804
827.717  	716.168
828.27 	483.758
828.823  	781.969
829.376  	755.452
829.929  	132.877
830.482  	561.771
831.035  	635.334
831.587 	117.712
832.139    	408.766
832.691 	474.127
833.243     	34.1504
833.795 	211.82
834.346   	982.847
834.898  	643.852
835.449   	404.476
836  	180.486
836.551   	1027.1
837.102  	812.703
837.652  	642.787
838.203    	575.643
838.753  	1312.5
839.303  	920.589
839.853   	312.073
840.402  	122.045
840.952  	18.9295
841.501 	321.757
842.051 	334.663
842.6      	863.514
843.149  	1177.4
843.697 	682.157
844.246  	571.376
844.794  	765
845.342    	1063.94
845.89 	750.146
846.438 	359.385
846.986    	276.539
847.533 	885.721
848.081  	77.591
848.628     	631.074
849.175  	215.059
849.722     	295.927
850.268  	1257.04
850.815 	350.788
851.361  	607.634
851.907  	333.588
852.453   	984.956
852.999  	491.247
853.545  	455.925
854.09 	989.173
854.636  	1133.32
855.181     	610.831
855.726  	732.099
856.27  	769.243
856.815  	951.204
857.359  	-10.4498
857.904    	572.443
858.448  	242.041
858.992  	815.881
859.536  	635.334
860.079     	555.366
860.623    	618.291
861.166   	409.839
861.709  	530.803
862.252  	519.048
862.795  	360.459
863.337  	717.231
863.879    	619.356
864.422   	574.577
864.964   	463.421
865.505  	1025
866.047  	562.838
866.589  	609.766
867.13  	359.385
867.671  	139.374
868.212  	458.067
868.753  	546.825
869.294   	678.966
869.834   	714.044
870.375    	584.177
870.915    	676.839
871.455    	1039.74
871.994  	496.595
872.534   	364.756
873.073  	591.643
873.613   	170.754
874.152   	316.378
874.691  	252.826
875.229  	300.234
875.768  	752.268
876.306  	848.701
876.844   	416.274
877.382  	439.857
877.92  	858.224
878.458     	395.892
878.995  	652.368
879.533  	866.687
880.07  	876.205
880.607  	957.535
881.144   	739.531
881.68   	520.117
882.217  	578.844
882.753   	588.444
883.289   	494.456
883.825     	700.23
884.361    	474.127
884.896      	164.265
885.432   	417.346
885.967   	328.211
886.502  	494.456
887.037  	1008.14
887.572  	-30.0542
888.106   	650.239
888.641  	550.028
889.175  	437.714
889.709  	416.274
890.242   	634.269
890.776  	877.263
891.309  	373.349
891.843     	504.082
892.376  	489.108
892.909    	918.477
893.442  	625.748
893.974  	424.852
894.506    	222.617
895.039    	458.067
895.571   	53.7073
896.102  	470.915
896.634  	385.159
897.166  	569.242
897.697  	398.038
898.228    	393.746
898.759  	308.845
899.29  	953.314
899.82        	1093.39
900.351  	680.03
900.881  	572.443
901.411   	1137.52
901.941  	1049.21
902.47   	772.425
903                	501.943
903.529  	275.462
904.058  	283.003
904.588  	548.96
905.116     	410.912
905.645   	583.111
906.173    	373.349
906.702  	545.757
907.23  	478.408
907.757  	785.149
908.285       	724.666
908.813   	520.117
909.34  	561.771
909.867        	1053.42
910.394  	970.193
910.921  	748.023
911.448  	740.593
911.974  	222.617
912.5   	767.122
913.026     	663.01
913.552    	199.939
914.078   	389.453
914.603  	15.6667
915.129  	661.946
915.654  	566.04
916.179   	866.687
916.704  	660.882
917.228   	172.917
917.753   	554.299
918.277  	177.242
918.801   	1093.39
919.325   	605.502
919.849     	445.214
920.372     	578.844
920.896     	876.205
921.419  	833.883
921.942  	743.778
922.464    	583.111
922.987  	825.412
923.509    	522.254
924.032  	700.23
924.554  	444.143
925.075   	767.122
925.597    	557.501
926.119    	936.428
926.64   	689.6
927.161  	396.965
927.682  	-333.669
928.203  	654.497
928.723  	204.26
929.244    	1157.46
929.764   	347.564
930.284   	202.099
930.804     	749.084
931.323  	1422.14
931.843     	682.157
932.362   	644.917
932.881   	451.641
933.4  	235.567
933.919   	702.355
934.437   	486.968
934.956    	484.828
935.474  	543.621
935.992  	338.964
936.51   	480.548
937.027   	1169.01
937.545  	615.094
938.062   	667.266
938.579  	461.28
939.096      	1056.58
939.612     	988.119
940.129  	656.625
940.645    	855.05
941.161     	439.857
941.677  	824.353
942.193  	231.251
942.708  	608.7
943.224     	184.81
943.739  	816.94
944.254  	838.117
944.769     	694.915
945.283      	1202.57
945.798   	587.377
946.312   	780.908
946.826  	410.912
947.34  	536.144
947.853  	498.735
948.367  	432.355
948.88   	347.564
949.393  	926.926
949.906  	354.012
950.419  	220.458
950.931  	762.878
951.444   	825.412
951.956   	721.48
952.468     	345.414
952.979     	381.939
953.491  	194.536
954.002    	509.428
954.514      	192.375
955.025   	513.704
955.536  	266.841
956.046   	1077.62
956.557  	546.825
957.067  	485.898
957.577  	735.285
958.087   	266.841
958.596   	-215.948
959.106  	902.631
959.615  	809.525
960.124   	848.701
960.633  	196.697
961.142   	189.133
961.65      	709.794
962.159    	900.518
962.667  	-72.581
963.175     	418.419
963.683     	-87.8641
964.19   	293.773
964.698   	202.099
965.205  	745.9
965.712   	626.813
966.219   	677.903
966.725    	404.476
967.232  	617.225
967.738    	1193.13
968.244  	283.003
968.75  	333.588
969.255  	598.04
969.761     	745.9
970.266  	1.52346
970.771  	631.074
971.276    	261.451
971.781  	387.306
972.285  	1014.46
972.789  	481.618
973.293    	554.299
973.797    	324.984
974.301  	626.813
974.805  	771.364
975.308  	552.163
975.811    	151.281
976.314    	893.12
976.817  	543.621
977.319     	753.329
977.822  	116.628
978.324    	804.227
978.826  	656.625
979.328  	366.905
979.829     	471.986
980.33  	-22.4285
980.832  	119.879
981.333  	870.918
981.833    	-107.527
982.334      	804.227
982.834    	36.3241
983.335   	450.57
983.835   	599.106
984.334    	806.346
984.834  	143.704
985.333    	167.51
985.833   	107.958
986.332   	1037.63
986.831  	692.789
987.329  	586.311
987.828    	318.529
988.326   	700.23
988.824   	578.844
989.322  	863.514
989.819  	524.392
990.317  	1360.56
990.814   	517.979
991.311   	569.242
991.808    	203.179
992.305  	673.648
992.801    	711.919
993.298   	987.064
993.794   	420.563
994.29    	688.537
994.785       	793.63
995.281  	492.317
995.776  	324.984
996.271    	637.464
996.766   	407.694
997.261  	376.57
997.755   	548.96
998.249  	519.048
998.744  	340.039
999.237  	748.023
999.731  	505.151
1000.22     	859.282
1000.72 	765
1001.21       	404.476
1001.7  	289.466
1002.2 	841.293
1002.69 	451.641
1003.18  	343.264
1003.67 	866.687
1004.17 	682.157
1004.66 	479.478
1005.15 	473.056
1005.64  	1328.18
1006.13 	894.177
1006.62 	453.783
1007.11  	301.31
1007.6 	153.445
1008.09 	592.709
1008.58   	546.825
1009.07 	252.826
1009.56 	-178.66
1010.05 	881.492
1010.54 	922.702
1011.03  	563.906
1011.52 	210.74
1012.01  	869.86
1012.5    	670.457
1012.99    	692.789
1013.47  	693.852
1013.96 	1201.52
1014.45  	31.9765
1014.94    	496.595
1015.42 	698.104
1015.91 	291.62
1016.4  	537.212
1016.88 	337.889
1017.37  	245.277
1017.86  	976.521
1018.34 	404.476
1018.83 	297.004
1019.31  	-164.417
1019.8 	301.31
1020.29  	365.831
1020.77    	258.217
1021.26 	356.161
1021.74 	736.346
1022.22  	499.804
1022.71 	616.16
1023.19  	395.892
1023.68  	945.927
1024.16 	562.838
1024.64 	783.029
1025.13  	215.059
1025.61 	775.606
1026.09  	523.323
1026.58    	378.718
1027.06    	876.205
1027.54  	805.287
1028.02  	531.871
1028.5 	145.869
1028.99  	798.929
1029.47 	1285.3
1029.95 	418.419
1030.43 	163.183
1030.91  	652.368
1031.39  	46.1035
1031.87 	316.378
1032.35  	390.526
1032.83  	331.437
1033.31   	1066.05
1033.79   	442
1034.27 	564.973
1034.75     	343.264
1035.23 	776.667
1035.71   	202.099
1036.18   	346.489
1036.66 	455.925
1037.14 	870.918
1037.62  	395.892
1038.1  	439.857
1038.57  	1213.05
1039.05      	1309.36
1039.53   	297.004
1040  	190.214
1040.48  	793.63
1040.96 	1389.8
1041.43  	509.428
1041.91  	490.177
1042.39    	1260.19
1042.86     	812.703
1043.34  	563.906
1043.81 	304.539
1044.29  	711.919
1044.76 	-74.7638
1045.24  	337.889
1045.55 	1357.43