File: JinData/Spectra_output_0_1736791263.txt
Wavelength [nm]    	Intensity [counts]
344.912	-1971.13
345.565 	-1939.9
346.219	773.839
346.872 	442.357
347.526   	571.732
348.179   	883.959
348.832  	810.937
349.485	773.839
350.138  	753.683
350.791   	777.02
351.444	716.523
352.097	683.575
352.75 	548.249
353.402 	535.432
354.055        	875.5
354.707 	662.301
355.359 	659.108
356.012	1263.68
356.664   	948.39
357.316	561.06
357.968	722.896
358.62	1273.1
359.272	445.571
359.923 	909.323
360.575	835.295
361.226  	850.113
361.878	989.524
362.529 	680.385
363.181	538.637
363.832	461.637
364.483  	1330.62
365.134     	762.171
365.785	780.202
366.436	859.635
367.086 	1363
367.737 	805.64
368.387	877.615
369.038	745.193
369.688	1657.57
370.339	808.818
370.989 	1117.91
371.639	430.569
372.289   	653.787
372.939   	689.954
373.589 	676.13
374.238       	438.071
374.888   	1022.19
375.537  	419.848
376.187 	875.5
376.836  	729.268
377.486   	742.009
378.135      	751.561
378.784 	874.443
379.433   	733.515
380.082   	1191.38
380.731  	586.666
381.379 	734.577
382.028  	1160.96
382.676	1286.7
383.325   	788.683
383.973	676.13
384.622	1009.55
385.27 	1452.72
385.918	725.02
386.566  	929.39
387.214 	909.323
387.861	1157.81
388.509	757.927
389.157 	501.23
389.804  	1036.93
390.452	676.13
391.099 	908.266
391.746	536.5
392.393	480.905
393.04	472.343
393.687	898.757
394.334	598.396
394.981  	1118.96
395.628 	906.153
396.274 	536.5
396.921 	297.363
397.567 	732.454
398.214  	703.773
398.86	519.405
399.506 	328.569
400.152	436.999
400.798  	1150.47
401.444 	754.744
402.089	746.254
402.735	548.249
403.38 	1250.06
404.026    	869.155
404.671 	839.529
405.316 	867.04
405.962 	1389.1
406.607	930.445
407.252	882.902
407.896      	533.296
408.541   	1243.78
409.186  	725.02
409.83	603.726
410.475  	655.916
411.119 	332.871
411.764 	852.229
412.408	205.7
413.052  	978.981
413.696 	666.557
414.34 	443.428
414.984 	633.559
415.627 	742.009
416.271  	704.835
416.914 	499.091
417.558	736.701
418.201	865.982
418.844 	754.744
419.487	987.416
420.13 	628.234
420.773	522.611
421.416  	669.748
422.059	671.876
422.701 	568.53
423.344   	465.92
423.986	971.6
424.629	610.121
425.271    	288.748
425.913	1272.05
426.555 	814.115
427.197	638.883
427.839     	524.748
428.481	1218.64
429.122 	910.379
429.764	413.414
430.405 	713.336
431.047	347.922
431.688   	956.832
432.329	515.129
432.97 	34.5128
433.611    	191.655
434.252	873.385
434.892 	653.787
435.533 	738.824
436.174	1398.49
436.814	1433.96
437.454	404.833
438.095 	524.748
438.735	882.902
439.375 	986.362
440.015 	572.799
440.654  	950.501
441.294 	1203.97
441.934	1283.56
442.573	826.825
443.213	353.296
443.852 	644.207
444.491     	934.668
445.13 	609.055
445.769	1088.48
446.408      	661.237
447.047  	676.13
447.686 	521.542
448.324	443.428
448.963	426.281
449.601  	1036.93
450.239	523.68
450.878	634.624
451.516  	653.787
452.154	1217.59
452.792	814.115
453.429 	570.664
454.067  	1574.49
454.705    	693.144
455.342   	927.278
455.979 	666.557
456.617	1021.14
457.254	1010.6
457.891   	681.448
458.528	419.848
459.165	951.556
459.801	1224.93
460.438    	720.772
461.075 	588.799
461.711        	129.989
462.347	686.765
462.983 	345.773
463.62 	215.419
464.256 	828.942
464.891	804.58
465.527	398.396
466.163 	429.497
466.798	598.396
467.434  	394.104
468.069     	606.924
468.705    	447.714
469.34	877.615
469.975 	881.844
470.61  	553.587
471.245 	882.902
471.879	558.925
472.514   	820.47
473.148        	406.979
473.783  	795.043
474.417 	283.363
475.051	1397.45
475.685	449.856
476.319	399.469
476.953 	1198.72
477.587 	596.263
478.221	580.267
478.854 	41.0333
479.488 	849.054
480.121       	1205.01
480.754 	-18.7979
481.387   	630.364
482.02 	978.981
482.653 	1381.8
483.286     	464.849
483.919	536.5
484.551 	304.898
485.184 	783.382
485.816  	575.999
486.449 	779.141
487.081  	1165.16
487.713 	723.958
488.345 	856.461
488.976	849.054
489.608	921.998
490.24 	843.763
490.871 	524.748
491.503   	757.927
492.134	381.223
492.765    	904.04
493.396 	614.384
494.027   	463.778
494.658   	1320.16
495.289  	1322.25
495.919  	447.714
496.55     	184.089
497.18	746.254
497.81 	1024.29
498.441   	554.655
499.071 	580.267
499.701    	898.757
500.331 	737.762
500.96 	365.115
501.59 	696.333
502.219	727.144
502.849 	1294.02
503.478 	488.395
504.107 	329.645
504.736      	1055.88
505.365 	710.148
505.994      	1054.82
506.623 	442.357
507.251    	1032.72
507.88	457.354
508.508 	579.2
509.137 	822.589
509.765 	448.785
510.393 	527.954
511.021 	346.848
511.649   	505.507
512.276     	962.107
512.904 	276.899
513.531   	631.429
514.159 	509.784
514.786     	511.922
515.413 	584.533
516.04 	530.091
516.667   	817.293
517.294  	1143.12
517.921  	1086.38
518.547    	823.648
519.174      	731.392
519.8  	350.072
520.426 	879.73
521.053 	830.001
521.679  	499.091
522.305 	767.475
522.93  	1228.07
523.556   	394.104
524.182  	381.223
524.807 	367.263
525.432  	859.635
526.057  	531.159
526.683     	503.369
527.308     	985.307
527.932 	443.428
528.557 	709.086
529.182   	536.5
529.806   	220.818
530.431  	279.054
531.055  	676.13
531.679 	61.6711
532.303  	1257.39
532.927    	748.377
533.551 	488.395
534.175     	456.283
534.798 	932.557
535.422         	504.438
536.045 	267.2
536.668    	521.542
537.292  	715.46
537.915 	1049.56
538.538 	555.722
539.16  	584.533
539.783   	828.942
540.406   	1099
541.028  	448.785
541.65  	893.472
542.272     	786.563
542.895       	1173.55
543.516  	665.493
544.138  	655.916
544.76   	1004.28
545.382 	736.701
546.003 	272.589
546.625    	510.853
547.246  	976.872
547.867 	893.472
548.488 	729.268
549.109  	332.871
549.73 	439.143
550.35  	785.503
550.971      	427.353
551.591  	495.883
552.211    	938.891
552.832  	751.561
553.452 	600.528
554.072  	561.06
554.691 	1335.84
555.311  	574.932
555.931 	262.889
556.55 	710.148
557.17  	894.529
557.789 	878.673
558.408  	534.364
559.027    	632.494
559.646   	663.365
560.264 	736.701
560.883   	785.503
561.502  	504.438
562.12  	795.043
562.738 	1302.39
563.356 	122.407
563.974   	225.135
564.592    	399.469
565.21 	301.669
565.828 	496.952
566.445 	495.883
567.063  	855.403
567.68   	1070.61
568.297   	525.817
568.914  	609.055
569.531 	822.589
570.148  	1099
570.765  	444.5
571.381   	304.898
571.998    	1194.53
572.614 	1212.35
573.23 	742.009
573.846 	247.793
574.462  	781.262
575.078   	1110.56
575.694   	241.322
576.309 	734.577
576.925   	1153.61
577.54  	898.757
578.155  	413.414
578.77 	621.842
579.385 	228.373
580                	355.445
580.615    	585.6
581.229 	756.866
581.844          	609.055
582.458  	1403.71
583.072 	367.263
583.686  	475.554
584.3  	710.148
584.914 	963.161
585.528  	438.071
586.142 	277.976
586.755  	80.1231
587.368 	261.811
587.982  	806.7
588.595 	515.129
589.208  	876.558
589.82 	1501.68
590.433  	814.115
591.046  	809.878
591.658 	852.229
592.271  	1031.67
592.883        	252.107
593.495 	384.444
594.107 	559.992
594.719          	1101.1
595.33  	667.621
595.942  	660.173
596.553   	371.559
597.165   	978.981
597.776  	246.715
598.387  	569.597
598.998      	1307.62
599.609    	261.811
600.22  	279.054
600.83  	761.11
601.441  	561.06
602.051  	87.7173
602.661     	711.211
603.271 	413.414
603.881   	945.224
604.491   	472.343
605.101     	683.575
605.71   	585.6
606.32   	1165.16
606.929 	1305.53
607.538     	519.405
608.147  	446.643
608.756  	956.832
609.365    	890.301
609.973 	742.009
610.582 	450.927
611.19 	290.902
611.799 	748.377
612.407    	716.523
613.015  	656.98
613.623  	815.175
614.23 	880.787
614.838  	838.47
615.446   	663.365
616.053 	159.216
616.66       	1069.55
617.267 	535.432
617.874   	695.27
618.481  	1116.86
619.088  	745.193
619.694     	395.177
620.301 	509.784
620.907 	491.604
621.513  	502.299
622.119   	736.701
622.725   	205.7
623.331  	881.844
623.937 	933.613
624.542  	595.197
625.148 	354.371
625.753  	397.323
626.358 	1006.39
626.963  	450.927
627.568   	753.683
628.173     	1068.5
628.777  	1429.79
629.382  	316.736
629.986      	484.115
630.591   	1353.6
631.195 	515.129
631.799   	537.569
632.402  	647.401
633.006   	1121.06
633.61  	417.704
634.213   	550.384
634.816       	687.828
635.42  	1154.66
636.023 	1012.71
636.625    	758.988
637.228   	478.765
637.831  	446.643
638.433  	1092.69
639.036  	791.863
639.638  	698.458
640.24  	1430.83
640.842 	1162.01
641.444  	484.115
642.046   	465.92
642.647   	1011.65
643.249  	1076.92
643.85 	331.796
644.451 	541.841
645.052  	677.194
645.653 	771.718
646.254  	271.511
646.854  	489.464
647.455 	1542.26
648.055  	948.39
648.656   	445.571
649.256   	595.197
649.856 	540.773
650.455   	999.01
651.055  	731.392
651.655   	537.569
652.254 	810.937
652.853   	1397.45
653.452   	491.604
654.051  	561.06
654.65  	849.054
655.249     	883.959
655.848  	260.733
656.446   	668.684
657.044 	131.072
657.643      	1133.67
658.241  	799.282
658.839  	545.045
659.436   	600.528
660.034   	992.687
660.631 	587.733
661.229   	850.113
661.826  	1194.53
662.423   	899.813
663.02    	761.11
663.617  	682.511
664.214  	499.091
664.81    	791.863
665.406   	-8.99804
666.003 	718.647
666.599   	740.947
667.195    	213.26
667.791 	207.86
668.386   	647.401
668.982  	1211.3
669.577 	335.022
670.173  	765.354
670.768 	505.507
671.363  	805.64
671.958   	1408.93
672.552   	564.262
673.147  	771.718
673.742  	195.977
674.336        	894.529
674.93 	598.396
675.524   	299.516
676.118  	367.263
676.712  	520.473
677.305   	672.939
677.899    	351.147
678.492  	386.591
679.086 	1220.73
679.679  	288.748
680.271      	446.643
680.864     	489.464
681.457  	144.065
682.049  	553.587
682.642 	820.47
683.234  	1167.26
683.826 	50.8111
684.418 	731.392
685.01 	572.799
685.602 	1059.03
686.193  	633.559
686.784   	375.855
687.376  	67.0994
687.967  	574.932
688.558 	1039.04
689.148        	564.262
689.739  	535.432
690.33  	672.939
690.92  	874.443
691.51    	233.769
692.1 	792.923
692.69  	1145.22
693.28  	634.624
693.87   	758.988
694.459  	380.149
695.049 	710.148
695.638 	510.853
696.227    	617.581
696.816  	652.723
697.405  	1228.07
697.994  	671.876
698.582 	687.828
699.17    	295.209
699.759 	88.802
700.347  	711.211
700.935 	597.33
701.523  	658.044
702.11  	1036.93
702.698    	314.584
703.285       	494.813
703.872 	413.414
704.459    	248.872
705.046    	281.208
705.633  	408.051
706.22  	713.336
706.806   	1229.12
707.393  	1075.86
707.979    	220.818
708.565  	402.688
709.151  	871.27
709.737 	451.999
710.322  	428.425
710.908 	262.889
711.493 	481.975
712.078  	1227.02
712.663  	617.581
713.248  	733.515
713.833 	322.116
714.418 	1335.84
715.002 	280.131
715.587 	514.06
716.171  	1195.58
716.755 	137.57
717.339 	488.395
717.922 	95.3094
718.506 	603.726
719.089  	1135.77
719.673 	160.298
720.256  	429.497
720.839 	1043.25
721.422 	1017.98
722.005  	600.528
722.587  	283.363
723.169 	773.839
723.752   	905.096
724.334  	693.144
724.916  	616.515
725.498  	938.891
726.079   	1390.15
726.661   	263.967
727.242  	178.684
727.823   	969.49
728.405 	997.956
728.985  	761.11
729.566  	488.395
730.147    	1123.16
730.727  	1068.5
731.308  	341.473
731.888   	569.597
732.468   	833.177
733.048 	546.113
733.628   	623.973
734.207   	752.622
734.787 	620.777
735.366   	191.655
735.945 	71.4414
736.524 	511.922
737.103 	941.002
737.682      	221.897
738.26 	567.463
738.839   	280.131
739.417  	921.998
739.995 	291.979
740.573  	415.559
741.151   	621.842
741.728   	353.296
742.306  	599.462
742.883 	384.444
743.46  	786.563
744.037   	817.293
744.614     	827.883
745.191 	533.296
745.768      	490.534
746.344   	455.212
746.92  	1088.48
747.496 	662.301
748.072  	621.842
748.648   	705.898
749.224   	1042.19
749.799 	234.848
750.375   	466.99
750.95   	625.038
751.525  	881.844
752.1  	485.185
752.675  	344.698
753.249 	601.594
753.824 	725.02
754.398  	276.899
754.972 	514.06
755.546 	791.863
756.12 	1068.5
756.694  	529.022
757.267 	552.519
757.841 	669.748
758.414 	1371.36
758.987  	655.916
759.56   	803.521
760.133 	148.395
760.705  	1166.21
761.278  	386.591
761.85  	568.53
762.422   	194.897
762.994      	1201.87
763.566 	305.975
764.138     	471.272
764.709 	731.392
765.281   	880.787
765.852   	335.022
766.423     	404.833
766.994  	1122.11
767.564      	1021.14
768.135 	280.131
768.706    	548.249
769.276 	781.262
769.846   	768.536
770.416  	388.737
770.986  	692.081
771.555   	1024.29
772.125  	692.081
772.694  	359.743
773.263   	585.6
773.833    	1388.06
774.401     	540.773
774.97  	639.948
775.539  	391.957
776.107  	742.009
776.675    	1008.49
777.243   	262.889
777.811  	665.493
778.379   	563.194
778.947    	955.777
779.514  	284.44
780.082    	405.906
780.649   	612.253
781.216  	564.262
781.783  	551.452
782.349  	729.268
782.916   	471.272
783.482 	1087.43
784.048    	456.283
784.614  	435.928
785.18 	631.429
785.746  	1033.77
786.312     	270.433
786.877      	613.318
787.442  	238.085
788.007    	1150.47
788.572      	580.267
789.137 	527.954
789.702    	784.443
790.266    	480.905
790.83  	612.253
791.395       	465.92
791.958    	659.108
792.522  	698.458
793.086 	730.33
793.65  	453.07
794.213 	192.736
794.776  	134.321
795.339 	450.927
795.902 	614.384
796.465   	1027.45
797.027 	944.169
797.59 	525.817
798.152  	324.267
798.714 	464.849
799.276 	753.683
799.837    	474.484
800.399  	382.297
800.96    	508.715
801.522 	1240.64
802.083   	479.835
802.644  	427.353
803.204  	699.521
803.765 	823.648
804.326 	445.571
804.886 	319.964
805.446  	1303.43
806.006      	972.654
806.566   	152.724
807.125 	33.4259
807.685 	970.545
808.244 	1182.99
808.803    	684.638
809.362  	556.79
809.921  	114.822
810.48 	1047.46
811.038  	454.141
811.596 	742.009
812.155  	114.822
812.713 	1028.51
813.271     	354.371
813.828 	515.129
814.386     	790.803
814.943   	1338.98
815.5   	484.115
816.057  	173.278
816.614  	601.594
817.171 	802.461
817.727 	483.045
818.284    	311.356
818.84  	1013.76
819.396    	1193.48
819.952 	418.776
820.508   	725.02
821.063  	856.461
821.618 	1064.29
822.174  	579.2
822.729   	628.234
823.284  	694.207
823.838 	947.335
824.393 	701.647
824.947      	408.051
825.501    	901.927
826.056  	820.47
826.609 	166.789
827.163  	447.714
827.717  	864.924
828.27 	500.161
828.823  	492.674
829.376  	545.045
829.929  	213.26
830.482  	732.454
831.035  	522.611
831.587 	339.323
832.139    	456.283
832.691 	483.045
833.243     	19.2921
833.795 	180.846
834.346   	1024.29
834.898  	755.805
835.449   	446.643
836  	176.522
836.551   	1068.5
837.102  	1173.55
837.652  	600.528
838.203    	442.357
838.753  	1155.71
839.303  	777.02
839.853   	409.124
840.402  	114.822
840.952  	242.4
841.501 	478.765
842.051 	367.263
842.6      	706.961
843.149  	1135.77
843.697 	816.234
844.246  	628.234
844.794  	735.639
845.342    	932.557
845.89 	730.33
846.438 	440.214
846.986    	350.072
847.533 	855.403
848.081  	261.811
848.628     	473.413
849.175  	415.559
849.722     	372.633
850.268  	1291.93
850.815 	321.04
851.361  	443.428
851.907  	272.589
852.453   	839.529
852.999  	470.202
853.545  	318.888
854.09 	882.902
854.636  	1101.1
855.181     	511.922
855.726  	652.723
856.27  	900.87
856.815  	862.809
857.359  	76.8677
857.904    	558.925
858.448  	455.212
858.992  	817.293
859.536  	484.115
860.079     	393.031
860.623    	705.898
861.166   	612.253
861.709  	509.784
862.252  	484.115
862.795  	511.922
863.337  	821.53
863.879    	596.263
864.422   	629.299
864.964   	506.577
865.505  	1010.6
866.047  	600.528
866.589  	517.267
867.13  	424.137
867.671  	262.889
868.212  	522.611
868.753  	454.141
869.294   	857.519
869.834   	610.121
870.375    	536.5
870.915    	588.799
871.455    	921.998
871.994  	569.597
872.534   	440.214
873.073  	541.841
873.613   	158.134
874.152   	538.637
874.691  	563.194
875.229  	340.398
875.768  	847.996
876.306  	808.818
876.844   	402.688
877.382  	432.712
877.92  	1000.06
878.458     	472.343
878.995  	639.948
879.533  	772.779
880.07  	947.335
880.607  	955.777
881.144   	546.113
881.68   	510.853
882.217  	816.234
882.753   	769.597
883.289   	405.906
883.825     	649.53
884.361    	697.396
884.896      	174.359
885.432   	393.031
885.967   	384.444
886.502  	650.594
887.037  	902.983
887.572  	132.155
888.106   	538.637
888.641  	765.354
889.175  	378.002
889.709  	512.991
890.242   	589.866
890.776  	847.996
891.309  	703.773
891.843     	508.715
892.376  	487.325
892.909    	1041.14
893.442  	781.262
893.974  	413.414
894.506    	70.3559
895.039    	426.281
895.571   	215.419
896.102  	366.189
896.634  	364.04
897.166  	733.515
897.697  	523.68
898.228    	453.07
898.759  	402.688
899.29  	1066.4
899.82        	993.741
900.351  	715.46
900.881  	591.998
901.411   	1031.67
901.941  	1138.92
902.47   	805.64
903                	460.566
903.529  	213.26
904.058  	459.495
904.588  	388.737
905.116     	547.181
905.645   	694.207
906.173    	561.06
906.702  	687.828
907.23  	472.343
907.757  	774.9
908.285       	719.709
908.813   	492.674
909.34  	353.296
909.867        	1049.56
910.394  	791.863
910.921  	687.828
911.448  	678.258
911.974  	197.058
912.5   	744.132
913.026     	574.932
913.552    	179.765
914.078   	449.856
914.603  	-63.4881
915.129  	510.853
915.654  	509.784
916.179   	933.613
916.704  	757.927
917.228   	135.404
917.753   	580.267
918.277  	432.712
918.801   	1191.38
919.325   	610.121
919.849     	369.411
920.372     	685.701
920.896     	933.613
921.419  	646.336
921.942  	646.336
922.464    	744.132
922.987  	1101.1
923.509    	505.507
924.032  	701.647
924.554  	375.855
925.075   	807.759
925.597    	454.141
926.119    	810.937
926.64   	790.803
927.161  	421.993
927.682  	-238.641
928.203  	597.33
928.723  	346.848
929.244    	1094.79
929.764   	440.214
930.284   	300.593
930.804     	680.385
931.323  	1370.31
931.843     	562.127
932.362   	551.452
932.881   	596.263
933.4  	345.773
933.919   	682.511
934.437   	396.25
934.956    	516.198
935.474  	496.952
935.992  	367.263
936.51   	453.07
937.027   	1114.76
937.545  	919.885
938.062   	483.045
938.579  	451.999
939.096      	919.885
939.612     	985.307
940.129  	571.732
940.645    	770.657
941.161     	527.954
941.677  	777.02
942.193  	235.927
942.708  	381.223
943.224     	294.133
943.739  	830.001
944.254  	899.813
944.769     	667.621
945.283      	1075.86
945.798   	552.519
946.312   	682.511
946.826  	441.286
947.34  	565.329
947.853  	629.299
948.367  	473.413
948.88   	439.143
949.393  	828.942
949.906  	360.817
950.419  	332.871
950.931  	633.559
951.444   	1156.76
951.956   	761.11
952.468     	108.319
952.979     	347.922
953.491  	254.264
954.002    	651.659
954.514      	132.155
955.025   	433.784
955.536  	425.209
956.046   	1169.36
956.557  	524.748
957.067  	473.413
957.577  	761.11
958.087   	413.414
958.596   	-59.1247
959.106  	758.988
959.615  	852.229
960.124   	871.27
960.633  	229.453
961.142   	187.332
961.65      	808.818
962.159    	897.7
962.667  	-44.9487
963.175     	448.785
963.683     	-50.4001
964.19   	298.439
964.698   	121.323
965.205  	723.958
965.712   	726.082
966.219   	674.003
966.725    	552.519
967.232  	451.999
967.738    	1162.01
968.244  	332.871
968.75  	286.594
969.255  	543.977
969.761     	821.53
970.266  	-73.3084
970.771  	465.92
971.276    	446.643
971.781  	514.06
972.285  	1057.98
972.789  	461.637
973.293    	553.587
973.797    	572.799
974.301  	699.521
974.805  	546.113
975.308  	546.113
975.811    	284.44
976.314    	935.724
976.817  	477.694
977.319     	664.429
977.822  	152.724
978.324    	801.402
978.826  	641.013
979.328  	399.469
979.829     	565.329
980.33  	82.2931
980.832  	-10.0867
981.333  	761.11
981.833    	191.655
982.334      	772.779
982.834    	144.065
983.335   	391.957
983.835   	575.999
984.334    	919.885
984.834  	203.54
985.333    	107.236
985.833   	2.97458
986.332   	1033.77
986.831  	654.852
987.329  	537.569
987.828    	157.052
988.326   	783.382
988.824   	594.131
989.322  	815.175
989.819  	627.169
990.317  	1374.49
990.814   	539.705
991.311   	478.765
991.808    	339.323
992.305  	734.577
992.801    	631.429
993.298   	762.171
993.794   	425.209
994.29    	873.385
994.785       	618.646
995.281  	358.669
995.776  	434.856
996.271    	773.839
996.766   	317.812
997.261  	154.888
997.755   	625.038
998.249  	525.817
998.744  	386.591
999.237  	761.11
999.731  	694.207
1000.22     	813.056
1000.72 	689.954
1001.21       	427.353
1001.7  	464.849
1002.2 	854.345
1002.69 	487.325
1003.18  	372.633
1003.67 	946.279
1004.17 	823.648
1004.66 	520.473
1005.15 	451.999
1005.64  	1172.5
1006.13 	1009.55
1006.62 	425.209
1007.11  	336.097
1007.6 	227.294
1008.09 	561.06
1008.58   	490.534
1009.07 	127.823
1009.56 	-20.9761
1010.05 	924.11
1010.54 	760.049
1011.03  	515.129
1011.52 	394.104
1012.01  	951.556
1012.5    	627.169
1012.99    	596.263
1013.47  	865.982
1013.96 	1185.09
1014.45  	23.6418
1014.94    	330.72
1015.42 	841.646
1015.91 	186.251
1016.4  	555.722
1016.88 	359.743
1017.37  	167.87
1017.86  	1086.38
1018.34 	361.892
1018.83 	149.477
1019.31  	-207.901
1019.8 	420.921
1020.29  	431.641
1020.77    	365.115
1021.26 	379.076
1021.74 	762.171
1022.22  	475.554
1022.71 	514.06
1023.19  	516.198
1023.68  	1014.82
1024.16 	639.948
1024.64 	786.563
1025.13  	455.212
1025.61 	631.429
1026.09  	521.542
1026.58    	322.116
1027.06    	1041.14
1027.54  	1002.17
1028.02  	412.342
1028.5 	84.4629
1028.99  	891.359
1029.47 	1322.25
1029.95 	355.445
1030.43 	247.793
1030.91  	685.701
1031.39  	161.38
1031.87 	491.604
1032.35  	299.516
1032.83  	475.554
1033.31   	1066.4
1033.79   	336.097
1034.27 	475.554
1034.75     	564.262
1035.23 	745.193
1035.71   	303.822
1036.18   	284.44
1036.66 	434.856
1037.14 	852.229
1037.62  	394.104
1038.1  	294.133
1038.57  	1170.41
1039.05      	1513.13
1039.53   	260.733
1040  	173.278
1040.48  	909.323
1040.96 	1517.29
1041.43  	412.342
1041.91  	606.924
1042.39    	1263.68
1042.86     	925.166
1043.34  	391.957
1043.81 	247.793
1044.29  	1008.49
1044.76 	114.822
1045.24  	259.655
1045.55 	1196.63