File: JinData/Spectra_output_0_1732215328.txt
Wavelength [nm]    	Intensity [counts]
344.912	-1516.35
345.565 	-1495.31
346.219	294.778
346.872 	342.118
347.526   	501.872
348.179   	632.068
348.832  	620.351
349.485	793.559
350.138  	915.238
350.791   	715.035
351.444	807.335
352.097	1054.4
352.75 	1416.86
353.402 	1203.55
354.055        	676.768
354.707 	1611.48
355.359 	1846.68
356.012	2808.63
356.664   	3029.37
357.316	3091.33
357.968	1176.28
358.62	965.904
359.272	352.866
359.923 	971.178
360.575	806.276
361.226  	911.013
361.878	754.32
362.529 	715.035
363.181	489.036
363.832	416.202
364.483  	849.689
365.134     	881.421
365.785	500.802
366.436	1106.98
367.086 	1282.09
367.737 	1073.34
368.387	1254.88
369.038	765.99
369.688	1487.72
370.339	1051.25
370.989 	1363.63
371.639	400.113
372.289   	567.036
372.939   	829.577
373.589 	1100.68
374.238       	832.754
374.888   	1383.47
375.537  	526.458
376.187 	1163.69
376.836  	521.115
377.486   	512.564
378.135      	782.958
378.784 	758.564
379.433   	1150.05
380.082   	1439.8
380.731  	610.76
381.379 	573.439
382.028  	820.047
382.676	1215.08
383.325   	650.168
383.973	858.154
384.622	584.106
385.27 	1214.03
385.918	756.442
386.566  	1081.75
387.214 	735.214
387.861	889.879
388.509	1135.35
389.157 	677.832
389.804  	872.962
390.452	498.663
391.099 	732.029
391.746	586.24
392.393	396.894
393.04	384.014
393.687	1062.82
394.334	601.167
394.981  	781.898
395.628 	878.249
396.274 	997.535
396.921 	632.068
397.567 	653.361
398.214  	799.918
398.86	782.958
399.506 	288.317
400.152	382.941
400.798  	932.135
401.444 	773.415
402.089	818.988
402.735	486.897
403.38 	1522.08
404.026    	1367.81
404.671 	1263.26
405.316 	1105.93
405.962 	1112.24
406.607	1087.01
407.252	1343.78
407.896      	1019.66
408.541   	1752.52
409.186  	2596.49
409.83	5709.27
410.475  	193.384
411.119 	253.832
411.764 	1059.66
412.408	250.597
413.052  	885.65
413.696 	689.529
414.34 	417.275
414.984 	602.234
415.627 	683.149
416.271  	538.209
416.914 	618.22
417.558	849.689
418.201	708.66
418.844 	728.843
419.487	1425.2
420.13 	579.84
420.773	350.717
421.416  	539.278
422.059	594.771
422.701 	743.707
423.344   	300.162
423.986	661.875
424.629	581.973
425.271    	232.258
425.913	1210.88
426.555 	537.141
427.197	755.381
427.839     	506.149
428.481	957.464
429.122 	632.068
429.764	551.025
430.405 	1004.91
431.047	1524.16
431.688   	4694.8
432.329	7214.58
432.97 	13049.3
433.611    	36003.9
434.252	1226.6
434.892 	810.513
435.533 	1036.51
436.174	1234.98
436.814	1240.22
437.454	225.783
438.095 	536.073
438.735	535.005
439.375 	885.65
440.015 	793.559
440.654  	1365.72
441.294 	1024.93
441.934	1079.65
442.573	813.691
443.213	295.855
443.852 	612.892
444.491     	722.471
445.13 	763.868
445.769	1376.16
446.408      	693.781
447.047  	727.781
447.686 	775.536
448.324	745.83
448.963	456.925
449.601  	823.224
450.239	779.777
450.878	676.768
451.516  	560.632
452.154	1015.45
452.792	1142.7
453.429 	804.156
454.067  	1595.9
454.705    	657.619
455.342   	1209.84
455.979 	934.246
456.617	1329.15
457.254	1096.47
457.891   	934.246
458.528	262.457
459.165	657.619
459.801	945.857
460.438    	804.156
461.075 	858.154
461.711        	500.802
462.347	1556.4
462.983 	585.173
463.62 	286.163
464.256 	657.619
464.891	659.747
465.527	400.113
466.163 	609.695
466.798	464.421
467.434  	271.08
468.069     	619.285
468.705    	521.115
469.34	492.246
469.975 	650.168
470.61  	463.35
471.245 	1220.32
471.879	259.223
472.514   	592.638
473.148        	166.356
473.783  	650.168
474.417 	98.1286
475.051	1069.13
475.685	312.002
476.319	325.988
476.953 	911.013
477.587 	515.77
478.221	1070.18
478.854 	281.854
479.488 	728.843
480.121       	1996.36
480.754 	85.1136
481.387   	895.163
482.02 	753.259
482.653 	8492.02
483.286     	31564.3
483.919	62567
484.551 	62567
485.184 	62567
485.816  	62567
486.449 	62567
487.081  	62567
487.713 	2257.62
488.345 	2023.16
488.976	1382.42
489.608	1311.38
490.24 	1266.4
490.871 	1076.5
491.503   	1394.95
492.134	1996.36
492.765    	2044.79
493.396 	1305.11
494.027   	856.038
494.658   	1318.7
495.289  	1295.69
495.919  	560.632
496.55     	308.773
497.18	830.636
497.81 	1088.06
498.441   	624.612
499.071 	787.199
499.701    	1127.99
500.331 	1027.03
500.96 	876.135
501.59 	794.619
502.219	645.91
502.849 	915.238
503.478 	447.285
504.107 	501.872
504.736      	957.464
505.365 	573.439
505.994      	1243.36
506.623 	454.783
507.251    	1005.97
507.88	331.366
508.508 	733.091
509.137 	950.078
509.765 	239.811
510.393 	392.601
511.021 	624.612
511.649   	441.928
512.276     	848.631
512.904 	234.416
513.531   	804.156
514.159 	841.222
514.786     	591.572
515.413 	483.687
516.04 	667.195
516.667   	1017.55
517.294  	974.341
517.921  	901.504
518.547    	1292.56
519.174      	788.259
519.8  	240.89
520.426 	594.771
521.053 	944.802
521.679  	759.625
522.305 	565.969
522.93  	1253.83
523.556   	487.967
524.182  	320.609
524.807 	405.477
525.432  	763.868
526.057  	718.222
526.683     	524.32
527.308     	882.479
527.932 	304.468
528.557 	897.277
529.182   	732.029
529.806   	258.145
530.431  	227.942
531.055  	651.233
531.679 	118.723
532.303  	1174.18
532.927    	521.115
533.551 	570.238
534.175     	528.595
534.798 	787.199
535.422         	265.691
536.045 	232.258
536.668    	441.928
537.292  	613.957
537.915 	939.524
538.538 	576.639
539.16  	720.347
539.783   	620.351
540.406   	787.199
541.028  	707.598
541.65  	1238.13
542.272     	448.356
542.895       	1145.85
543.516  	581.973
544.138  	927.911
544.76   	806.276
545.382 	512.564
546.003 	288.317
546.625    	573.439
547.246  	775.536
547.867 	670.386
548.488 	661.875
549.109  	152.291
549.73 	348.567
550.35  	489.036
550.971      	611.826
551.591  	787.199
552.211    	923.687
552.832  	585.173
553.452 	752.197
554.072  	529.663
554.691 	1068.08
555.311  	418.347
555.931 	66.6651
556.55 	626.742
557.17  	623.547
557.789 	685.276
558.408  	705.473
559.027    	784.018
559.646   	389.381
560.264 	514.701
560.883   	775.536
561.502  	581.973
562.12  	709.723
562.738 	1024.93
563.356 	134.971
563.974   	236.574
564.592    	353.941
565.21 	343.193
565.828 	554.227
566.445 	847.573
567.063  	660.811
567.68   	1408.51
568.297   	1587.59
568.914  	762.808
569.531 	1724.56
570.148  	1021.77
570.765  	734.152
571.381   	525.389
571.998    	1928.28
572.614 	2863.61
573.23 	1915.89
573.846 	429.068
574.462  	733.091
575.078   	3051.72
575.694   	1287.33
576.309 	1454.39
576.925   	2961.28
577.54  	2105.53
578.155  	2506.55
578.77 	3008.04
579.385 	2218.6
580                	3829.06
580.615    	9806.64
581.229 	4504.84
581.844          	2151.81
582.458  	2876.84
583.072 	4470.65
583.686  	709.723
584.3  	1909.7
584.914 	820.047
585.528  	1276.86
586.142 	1303.02
586.755  	1373.03
587.368 	1818.76
587.982  	5659.14
588.595 	1884.91
589.208  	827.46
589.82 	1514.79
590.433  	1378.25
591.046  	3652.37
591.658 	2407.29
592.271  	3513.88
592.883        	2633.24
593.495 	3408.65
594.107 	2251.46
594.719          	1303.02
595.33  	3412.69
595.942  	2411.39
596.553   	3787.69
597.165   	3681.66
597.776  	3614.98
598.387  	2007.7
598.998      	1339.6
599.609    	1067.03
600.22  	1115.39
600.83  	1884.91
601.441  	6816.7
602.051  	4659.64
602.661     	8482.99
603.271 	843.339
603.881   	1911.76
604.491   	1030.19
605.101     	2091.12
605.71   	1962.33
606.32   	5299.13
606.929 	1699.68
607.538     	3247.57
608.147  	1188.87
608.756  	2652.64
609.365    	1105.93
609.973 	915.238
610.582 	465.491
611.19 	827.46
611.799 	2633.24
612.407    	1734.92
613.015  	5527.79
613.623  	1127.99
614.23 	1207.74
614.838  	2244.27
615.446   	4240.25
616.053 	313.078
616.66       	1395.99
617.267 	811.573
617.874   	1068.08
618.481  	856.038
619.088  	1769.09
619.694     	715.035
620.301 	253.832
620.907 	315.23
621.513  	643.781
622.119   	1684.13
622.725   	439.785
623.331  	1656.12
623.937 	622.481
624.542  	608.629
625.148 	291.548
625.753  	220.386
626.358 	1085.96
626.963  	869.79
627.568   	984.886
628.173     	885.65
628.777  	1147.95
629.382  	523.252
629.986      	434.427
630.591   	1057.56
631.195 	380.794
631.799   	742.645
632.402  	1726.63
633.006   	881.421
633.61  	699.096
634.213   	618.22
634.816       	856.038
635.42  	802.037
636.023 	843.339
636.625    	851.806
637.228   	591.572
637.831  	370.055
638.433  	739.461
639.036  	1178.38
639.638  	581.973
640.24  	1289.42
640.842 	886.707
641.444  	520.046
642.046   	569.17
642.647   	750.075
643.249  	1125.89
643.85 	191.223
644.451 	546.753
645.052  	771.294
645.653 	435.499
646.254  	266.769
646.854  	604.365
647.455 	1284.19
648.055  	661.875
648.656   	298.009
649.256   	722.471
649.856 	5850.61
650.455   	4773.16
651.055  	2709.77
651.655   	22665.8
652.254 	1996.36
652.853   	1529.36
653.452   	3854.29
654.051  	54223.3
654.65  	62567
655.249     	62567
655.848  	62567
656.446   	62567
657.044 	62567
657.643      	62567
658.241  	62567
658.839  	62567
659.436   	62567
660.034   	62567
660.631 	62567
661.229   	62567
661.826  	62567
662.423   	62567
663.02    	62567
663.617  	62567
664.214  	62567
664.81    	62567
665.406   	2682.23
666.003 	2547.45
666.599   	1715.23
667.195    	919.463
667.791 	1096.47
668.386   	1541.84
668.982  	1508.55
669.577 	708.66
670.173  	1044.93
670.768 	1005.97
671.363  	924.743
671.958   	1643.67
672.552   	810.513
673.147  	1215.08
673.742  	313.078
674.336        	916.294
674.93 	639.522
675.524   	574.505
676.118  	292.625
676.712  	585.173
677.305   	618.22
677.899    	432.284
678.492  	357.164
679.086 	1147.95
679.679  	376.499
680.271      	436.571
680.864     	400.113
681.457  	243.047
682.049  	506.149
682.642 	867.674
683.234  	1072.29
683.826 	111.137
684.418 	666.131
685.01 	890.936
685.602 	1073.34
686.193  	571.305
686.784   	601.167
687.376  	243.047
687.967  	463.35
688.558 	912.069
689.148        	648.039
689.739  	393.674
690.33  	272.158
690.92  	685.276
691.51    	77.5187
692.1 	982.777
692.69  	1093.32
693.28  	475.126
693.87   	776.596
694.459  	186.899
695.049 	396.894
695.638 	205.268
696.227    	565.969
696.816  	774.475
697.405  	1104.88
697.994  	368.981
698.582 	814.751
699.17    	169.601
699.759 	94.8754
700.347  	450.499
700.935 	596.903
701.523  	881.421
702.11  	737.337
702.698    	238.732
703.285       	348.567
703.872 	451.57
704.459    	150.127
705.046    	140.384
705.633  	248.44
706.22  	735.214
706.806   	877.192
707.393  	764.929
707.979    	222.545
708.565  	470.844
709.151  	589.439
709.737 	225.783
710.322  	484.757
710.908 	110.053
711.493 	208.508
712.078  	1142.7
712.663  	561.7
713.248  	637.393
713.833 	240.89
714.418 	1461.68
715.002 	186.899
715.587 	253.832
716.171  	1255.93
716.755 	93.791
717.339 	386.161
717.922 	294.778
718.506 	599.035
719.089  	752.197
719.673 	38.4252
720.256  	172.845
720.839 	703.347
721.422 	823.224
722.005  	724.595
722.587  	177.17
723.169 	573.439
723.752   	719.284
724.334  	436.571
724.916  	785.079
725.498  	685.276
726.079   	1374.07
726.661   	235.495
727.242  	154.455
727.823   	789.319
728.405 	930.023
728.985  	679.959
729.566  	502.941
730.147    	912.069
730.727  	860.27
731.308  	467.633
731.888   	704.41
732.468   	544.618
733.048 	323.837
733.628   	625.677
734.207   	762.808
734.787 	556.363
735.366   	102.466
735.945 	-103.229
736.524 	727.781
737.103 	673.578
737.682      	35.1648
738.26 	605.431
738.839   	260.301
739.417  	661.875
739.995 	25.3813
740.573  	666.131
741.151   	799.918
741.728   	130.639
742.306  	327.064
742.883 	395.821
743.46  	943.746
744.037   	407.622
744.614     	718.222
745.191 	524.32
745.768      	552.092
746.344   	247.362
746.92  	740.522
747.496 	423.708
748.072  	707.598
748.648   	464.421
749.224   	768.112
749.799 	211.748
750.375   	358.239
750.95   	474.055
751.525  	650.168
752.1  	393.674
752.675  	319.534
753.249 	295.855
753.824 	508.287
754.398  	396.894
754.972 	573.439
755.546 	568.103
756.12 	688.466
756.694  	468.703
757.267 	753.259
757.841 	440.857
758.414 	1098.57
758.987  	746.891
759.56   	708.66
760.133 	-22.5011
760.705  	763.868
761.278  	367.907
761.85  	784.018
762.422   	176.089
762.994      	1001.75
763.566 	394.747
764.138     	477.266
764.709 	459.067
765.281   	526.458
765.852   	190.142
766.423     	403.331
766.994  	906.787
767.564      	1015.45
768.135 	233.337
768.706    	467.633
769.276 	463.35
769.846   	497.594
770.416  	267.847
770.986  	679.959
771.555   	908.9
772.125  	462.279
772.694  	159.865
773.263   	575.572
773.833    	975.396
774.401     	345.343
774.97  	645.91
775.539  	318.458
776.107  	1376.16
776.675    	62567
777.243   	48763.4
777.811  	4975
778.379   	940.58
778.947    	845.456
779.514  	248.44
780.082    	615.023
780.649   	609.695
781.216  	243.047
781.783  	897.277
782.349  	974.341
782.916   	330.29
783.482 	1144.8
784.048    	468.703
784.614  	673.578
785.18 	426.924
785.746  	830.636
786.312     	107.886
786.877      	602.234
787.442  	71.007
788.007    	932.135
788.572      	789.319
789.137 	625.677
789.702    	548.889
790.266    	319.534
790.83  	839.105
791.395       	707.598
791.958    	471.914
792.522  	486.897
793.086 	756.442
793.65  	529.663
794.213 	118.723
794.776  	-97.7666
795.339 	621.416
795.902 	318.458
796.465   	1106.98
797.027 	611.826
797.59 	776.596
798.152  	246.283
798.714 	143.632
799.276 	430.14
799.837    	425.852
800.399  	430.14
800.96    	361.462
801.522 	959.575
802.083   	508.287
802.644  	389.381
803.204  	580.906
803.765 	417.275
804.326 	570.238
804.886 	257.067
805.446  	1364.67
806.006      	807.335
806.566   	225.783
807.125 	37.3384
807.685 	755.381
808.244 	845.456
808.803    	860.27
809.362  	498.663
809.921  	-41.0246
810.48 	797.798
811.038  	508.287
811.596 	836.988
812.155  	-1.81398
812.713 	739.461
813.271     	510.425
813.828 	336.742
814.386     	642.716
814.943   	1159.49
815.5   	509.356
816.057  	233.337
816.614  	387.235
817.171 	607.563
817.727 	737.337
818.284    	260.301
818.84  	845.456
819.396    	1161.59
819.952 	432.284
820.508   	1094.37
821.063  	671.45
821.618 	800.978
822.174  	544.618
822.729   	760.686
823.284  	318.458
823.838 	706.535
824.393 	803.097
824.947      	281.854
825.501    	668.259
826.056  	606.497
826.609 	-115.251
827.163  	350.717
827.717  	589.439
828.27 	294.778
828.823  	641.652
829.376  	638.457
829.929  	11.2432
830.482  	461.208
831.035  	556.363
831.587 	166.356
832.139    	230.1
832.691 	284.009
833.243     	-41.0246
833.795 	4.71544
834.346   	908.9
834.898  	529.663
835.449   	240.89
836  	158.783
836.551   	862.385
837.102  	480.477
837.652  	753.259
838.203    	642.716
838.753  	1251.74
839.303  	741.584
839.853   	257.067
840.402  	-6.16782
840.952  	-38.8446
841.501 	197.706
842.051 	463.35
842.6      	718.222
843.149  	1242.32
843.697 	35939.4
844.246  	33093.2
844.794  	3789.7
845.342    	1121.69
845.89 	730.967
846.438 	493.315
846.986    	134.971
847.533 	733.091
848.081  	-65.0156
848.628     	730.967
849.175  	285.086
849.722     	236.574
850.268  	1175.23
850.815 	276.468
851.361  	704.41
851.907  	143.632
852.453   	859.212
852.999  	380.794
853.545  	402.258
854.09 	721.409
854.636  	916.294
855.181     	508.287
855.726  	559.565
856.27  	584.106
856.815  	649.104
857.359  	-12.6999
857.904    	742.645
858.448  	185.819
858.992  	702.284
859.536  	809.454
860.079     	502.941
860.623    	418.347
861.166   	253.832
861.709  	649.104
862.252  	469.774
862.795  	313.078
863.337  	543.55
863.879    	799.918
864.422   	548.889
864.964   	286.163
865.505  	670.386
866.047  	500.802
866.589  	507.218
867.13  	131.722
867.671  	88.3679
868.212  	548.889
868.753  	368.981
869.294   	577.706
869.834   	418.347
870.375    	523.252
870.915    	571.305
871.455    	823.224
871.994  	389.381
872.534   	217.147
873.073  	482.617
873.613   	-32.306
874.152   	209.588
874.691  	378.646
875.229  	236.574
875.768  	631.003
876.306  	608.629
876.844   	455.854
877.382  	265.691
877.92  	472.985
878.458     	291.548
878.995  	629.938
879.533  	762.808
880.07  	800.978
880.607  	750.075
881.144   	849.689
881.68   	574.505
882.217  	280.777
882.753   	495.455
883.289   	415.13
883.825     	671.45
884.361    	328.139
884.896      	15.5942
885.432   	296.932
885.967   	289.394
886.502  	430.14
887.037  	777.657
887.572  	-92.3052
888.106   	656.554
888.641  	393.674
889.175  	249.519
889.709  	419.419
890.242   	579.84
890.776  	713.973
891.309  	259.223
891.843     	454.783
892.376  	425.852
892.909    	543.55
893.442  	539.278
893.974  	541.414
894.506    	137.136
895.039    	284.009
895.571   	-69.38
896.102  	397.967
896.634  	328.139
897.166  	516.839
897.697  	129.556
898.228    	397.967
898.759  	216.067
899.29  	753.259
899.82        	993.319
900.351  	645.91
900.881  	844.398
901.411   	884.593
901.941  	851.806
902.47   	876.135
903                	489.036
903.529  	118.723
904.058  	67.7506
904.588  	433.355
905.116     	568.103
905.645   	436.571
906.173    	236.574
906.702  	294.778
907.23  	639.522
907.757  	470.844
908.285       	435.499
908.813   	305.544
909.34  	437.642
909.867        	808.395
910.394  	986.994
910.921  	804.156
911.448  	854.98
911.974  	118.723
912.5   	536.073
913.026     	529.663
913.552    	151.209
914.078   	267.847
914.603  	-233.588
915.129  	646.975
915.654  	492.246
916.179   	715.035
916.704  	394.747
917.228   	100.297
917.753   	421.564
918.277  	62.3224
918.801   	836.988
919.325   	655.49
919.849     	418.347
920.372     	547.821
920.896     	623.547
921.419  	726.719
921.942  	727.781
922.464    	549.957
922.987  	799.918
923.509    	395.821
924.032  	803.097
924.554  	496.524
925.075   	1764.95
925.597    	632.068
926.119    	980.668
926.64   	506.149
927.161  	294.778
927.682  	-281.963
928.203  	743.707
928.723  	98.1286
929.244    	914.182
929.764   	305.544
930.284   	64.4938
930.804     	531.8
931.323  	1101.73
931.843     	645.91
932.362   	650.168
932.881   	281.854
933.4  	119.806
933.919   	698.033
934.437   	380.794
934.956    	130.639
935.474  	285.086
935.992  	490.106
936.51   	268.925
937.027   	1001.75
937.545  	620.351
938.062   	597.969
938.579  	500.802
939.096      	943.746
939.612     	767.051
940.129  	570.238
940.645    	832.754
941.161     	292.625
941.677  	627.807
942.193  	110.053
942.708  	596.903
943.224     	50.3764
943.739  	631.003
944.254  	917.351
944.769     	613.957
945.283      	1037.56
945.798   	303.391
946.312   	701.222
946.826  	417.275
947.34  	292.625
947.853  	218.226
948.367  	423.708
948.88   	331.366
949.393  	581.973
949.906  	216.067
950.419  	289.394
950.931  	705.473
951.444   	666.131
951.956   	612.892
952.468     	144.715
952.979     	292.625
953.491  	99.2129
954.002    	289.394
954.514      	-48.6557
955.025   	298.009
955.536  	218.226
956.046   	861.328
956.557  	367.907
957.067  	353.941
957.577  	593.704
958.087   	67.7506
958.596   	-160.11
959.106  	895.163
959.615  	564.902
960.124   	547.821
960.633  	127.39
961.142   	35.1648
961.65      	543.55
962.159    	608.629
962.667  	-203.951
963.175     	485.827
963.683     	-226.999
964.19   	120.89
964.698   	-1.81398
965.205  	820.047
965.712   	425.852
966.219   	578.773
966.725    	319.534
967.232  	607.563
967.738    	1050.19
968.244  	120.89
968.75  	420.492
969.255  	463.35
969.761     	526.458
970.266  	-84.6612
970.771  	545.686
971.276    	263.535
971.781  	314.154
972.285  	821.106
972.789  	368.981
973.293    	365.759
973.797    	236.574
974.301  	479.406
974.805  	717.16
975.308  	438.714
975.811    	102.466
976.314    	617.154
976.817  	621.416
977.319     	688.466
977.822  	-45.3849
978.324    	549.957
978.826  	485.827
979.328  	498.663
979.829     	333.516
980.33  	-30.1268
980.832  	-3.99081
981.333  	753.259
981.833    	-127.278
982.334      	342.118
982.834    	-127.278
983.335   	276.468
983.835   	305.544
984.334    	822.165
984.834  	90.5373
985.333    	-19.2337
985.833   	-154.635
986.332   	901.504
986.831  	482.617
987.329  	507.218
987.828    	56.8931
988.326   	389.381
988.824   	548.889
989.322  	938.469
989.819  	306.62
990.317  	1125.89
990.814   	501.872
991.311   	652.297
991.808    	86.1984
992.305  	546.753
992.801    	674.641
993.298   	935.302
993.794   	211.748
994.29    	539.278
994.785       	847.573
995.281  	309.849
995.776  	257.067
996.271    	601.167
996.766   	282.932
997.261  	222.545
997.755   	365.759
998.249  	335.667
998.744  	325.988
999.237  	807.335
999.731  	416.202
1000.22     	580.906
1000.72 	726.719
1001.21       	250.597
1001.7  	210.668
1002.2 	496.524
1002.69 	408.695
1003.18  	198.786
1003.67 	602.234
1004.17 	435.499
1004.66 	378.646
1005.15 	507.218
1005.64  	1179.43
1006.13 	660.811
1006.62 	316.306
1007.11  	335.667
1007.6 	139.302
1008.09 	337.817
1008.58   	521.115
1009.07 	185.819
1009.56 	-190.791
1010.05 	699.096
1010.54 	986.994
1011.03  	579.84
1011.52 	180.414
1012.01  	603.299
1012.5    	761.747
1012.99    	778.717
1013.47  	535.005
1013.96 	818.988
1014.45  	-148.066
1014.94    	164.193
1015.42 	526.458
1015.91 	35.1648
1016.4  	439.785
1016.88 	286.163
1017.37  	-87.9369
1017.86  	676.768
1018.34 	362.536
1018.83 	248.44
1019.31  	-205.048
1019.8 	89.4526
1020.29  	472.985
1020.77    	158.783
1021.26 	172.845
1021.74 	542.482
1022.22  	516.839
1022.71 	596.903
1023.19  	308.773
1023.68  	537.141
1024.16 	510.425
1024.64 	956.409
1025.13  	116.556
1025.61 	444.071
1026.09  	660.811
1026.58    	259.223
1027.06    	706.535
1027.54  	740.522
1028.02  	464.421
1028.5 	81.8589
1028.99  	659.747
1029.47 	1150.05
1029.95 	402.258
1030.43 	191.223
1030.91  	437.642
1031.39  	-6.16782
1031.87 	436.571
1032.35  	254.911
1032.83  	224.704
1033.31   	768.112
1033.79   	497.594
1034.27 	377.572
1034.75     	287.24
1035.23 	465.491
1035.71   	145.797
1036.18   	382.941
1036.66 	194.464
1037.14 	496.524
1037.62  	547.821
1038.1  	556.363
1038.57  	1027.03
1039.05      	1132.2
1039.53   	504.01
1040  	216.067
1040.48  	484.757
1040.96 	1004.91
1041.43  	431.212
1041.91  	584.106
1042.39    	934.246
1042.86     	482.617
1043.34  	724.595
1043.81 	111.137
1044.29  	568.103
1044.76 	-107.6
1045.24  	173.926
1045.55 	972.232