File: JinData/Spectra_output_0_1733519714.txt
Wavelength [nm]    	Intensity [counts]
344.912	-1500.84
345.565 	-1674.67
346.219	399.326
346.872 	305.831
347.526   	608.913
348.179   	656.838
348.832  	448.642
349.485	592.923
350.138  	751.419
350.791   	462.565
351.444	478.622
352.097	501.088
352.75 	604.65
353.402 	298.296
354.055        	558.782
354.707 	797.021
355.359 	764.152
356.012	1148.23
356.664   	663.223
357.316	498.949
357.968	1006.25
358.62	1075.72
359.272	306.908
359.923 	958.801
360.575	828.801
361.226  	699.38
361.878	790.662
362.529 	700.443
363.181	498.949
363.832	204.476
364.483  	985.167
365.134     	668.543
365.785	441.143
366.436	733.374
367.086 	1132.48
367.737 	1010.46
368.387	933.472
369.038	436.857
369.688	1383.74
370.339	587.591
370.989 	1371.22
371.639	282.142
372.289   	456.14
372.939   	668.543
373.589 	812.915
374.238       	166.645
374.888   	863.726
375.537  	414.344
376.187 	1111.47
376.836  	511.78
377.486   	373.564
378.135      	581.191
378.784 	647.259
379.433   	670.67
380.082   	876.417
380.731  	608.913
381.379 	555.58
382.028  	824.565
382.676	1249.93
383.325   	520.331
383.973	682.37
384.622	772.637
385.27 	1238.41
385.918	655.774
386.566  	912.351
387.214 	622.766
387.861	821.388
388.509	680.243
389.157 	505.365
389.804  	750.358
390.452	466.848
391.099 	735.497
391.746	352.078
392.393	146.086
393.04	320.896
393.687	658.967
394.334	436.857
394.981  	914.464
395.628 	661.095
396.274 	498.949
396.921 	87.5727
397.567 	517.125
398.214  	510.711
398.86	568.388
399.506 	176.377
400.152	186.107
400.798  	900.729
401.444 	677.052
402.089	690.876
402.735	187.188
403.38 	1098.86
404.026    	996.762
404.671 	938.75
405.316 	621.7
405.962 	972.514
406.607	882.761
407.252	973.568
407.896      	272.445
408.541   	1166.07
409.186  	699.38
409.83	428.282
410.475  	257.355
411.119 	82.1484
411.764 	1027.31
412.408	136.342
413.052  	757.786
413.696 	455.069
414.34 	154.744
414.984 	505.365
415.627 	485.042
416.271  	563.052
416.914 	407.908
417.558	588.657
418.201	620.635
418.844 	510.711
419.487	1005.19
420.13 	487.182
420.773	190.43
421.416  	599.32
422.059	464.706
422.701 	543.835
423.344   	152.58
423.986	527.811
424.629	603.584
425.271    	242.257
425.913	948.249
426.555 	441.143
427.197	702.568
427.839     	332.728
428.481	892.275
429.122 	547.038
429.764	357.451
430.405 	730.188
431.047	153.662
431.688   	684.496
432.329	389.668
432.97 	18.0596
433.611    	116.845
434.252	417.561
434.892 	593.989
435.533 	932.416
436.174	1155.57
436.814	1255.16
437.454	209.876
438.095 	494.67
438.735	560.917
439.375 	741.867
440.015 	574.79
440.654  	918.689
441.294 	913.407
441.934	923.969
442.573	687.686
443.213	233.625
443.852 	422.922
444.491     	686.623
445.13 	698.317
445.769	1121.97
446.408      	443.286
447.047  	522.468
447.686 	625.961
448.324	468.989
448.963	21.3221
449.601  	837.271
450.239	684.496
450.878	669.606
451.516  	400.399
452.154	959.856
452.792	987.275
453.429 	717.443
454.067  	1655.36
454.705    	487.182
455.342   	916.576
455.979 	574.79
456.617	799.141
457.254	666.415
457.891   	754.603
458.528	75.6379
459.165	656.838
459.801	876.417
460.438    	647.259
461.075 	616.373
461.711        	-2.61193
462.347	502.157
462.983 	311.213
463.62 	162.318
464.256 	679.179
464.891	704.694
465.527	166.645
466.163 	490.392
466.798	338.104
467.434  	81.0634
468.069     	625.961
468.705    	591.856
469.34	503.226
469.975 	702.568
470.61  	378.933
471.245 	921.857
471.879	385.374
472.514   	617.438
473.148        	139.591
473.783  	508.573
474.417 	125.512
475.051	1112.52
475.685	509.642
476.319	284.296
476.953 	961.966
477.587 	510.711
478.221	644.065
478.854 	73.4674
479.488 	542.767
480.121       	1070.47
480.754 	-70.18
481.387   	910.238
482.02 	874.302
482.653 	1245.74
483.286     	229.309
483.919	840.446
484.551 	235.783
485.184 	674.925
485.816  	566.254
486.449 	1023.1
487.081  	1090.45
487.713 	545.97
488.345 	1091.5
488.976	825.624
489.608	824.565
490.24 	740.805
490.871 	631.287
491.503   	956.691
492.134	306.908
492.765    	1069.41
493.396 	1065.21
494.027   	738.682
494.658   	1256.21
495.289  	1274
495.919  	491.461
496.55     	100.586
497.18	764.152
497.81 	1041
498.441   	716.381
499.071 	941.917
499.701    	966.185
500.331 	851.03
500.96 	867.956
501.59 	769.455
502.219	714.256
502.849 	1190.19
503.478 	712.132
504.107 	748.236
504.736      	1041
505.365 	757.786
505.994      	1320.02
506.623 	662.159
507.251    	1369.13
507.88	617.438
508.508 	1090.45
509.137 	1282.37
509.765 	627.027
510.393 	663.223
511.021 	888.047
511.649   	846.797
512.276     	1523.39
512.904 	703.631
513.531   	1131.43
514.159 	1104.11
514.786     	909.182
515.413 	904.956
516.04 	929.249
516.667   	1266.68
517.294  	1359.73
517.921  	1151.38
518.547    	1625.26
519.174      	1194.39
519.8  	773.698
520.426 	1100.96
521.053 	1496.33
521.679  	1627.33
522.305 	1156.62
522.93  	1827.31
523.556   	1235.26
524.182  	896.502
524.807 	937.695
525.432  	1474.46
526.057  	1153.47
526.683     	1093.6
527.308     	1535.88
527.932 	976.732
528.557 	1511.95
529.182   	1100.96
529.806   	999.924
530.431  	1089.39
531.055  	1444.24
531.679 	834.095
532.303  	1913.07
532.927    	1189.15
533.551 	1534.84
534.175     	1320.02
534.798 	1919.27
535.422         	1037.84
536.045 	1318.98
536.668    	1421.31
537.292  	1688.55
537.915 	1709.29
538.538 	1574.35
539.16  	1626.3
539.783   	1477.59
540.406   	1635.64
541.028  	1709.29
541.65  	1901.71
542.272     	1503.62
542.895       	2133.58
543.516  	1559.8
544.138  	1831.45
544.76   	1782.82
545.382 	1703.07
546.003 	1256.21
546.625    	1503.62
547.246  	1668.85
547.867 	1774.54
548.488 	1804.55
549.109  	1266.68
549.73 	1474.46
550.35  	1469.25
550.971      	1718.61
551.591  	1718.61
552.211    	2090.37
552.832  	1474.46
553.452 	2057.42
554.072  	1717.58
554.691 	2532.39
555.311  	1661.58
555.931 	1410.87
556.55 	1871.76
557.17  	2007.97
557.789 	1811.8
558.408  	1821.1
559.027    	1677.14
559.646   	1753.84
560.264 	1750.73
560.883   	2167.51
561.502  	2064.63
562.12  	2013.13
562.738 	2231.2
563.356 	1268.77
563.974   	1554.6
564.592    	1579.55
565.21 	1343.02
565.828 	1958.48
566.445 	1822.14
567.063  	1870.72
567.68   	2068.75
568.297   	1666.77
568.914  	1649.13
569.531 	2142.83
570.148  	2138.72
570.765  	1520.27
571.381   	1281.33
571.998    	2289.7
572.614 	2089.34
573.23 	2012.1
573.846 	1446.33
574.462  	1984.26
575.078   	1977.04
575.694   	1542.12
576.309 	2037.85
576.925   	2208.61
577.54  	2044.03
578.155  	1673
578.77 	1624.22
579.385 	1399.4
580                	1630.45
580.615    	1960.54
581.229 	2118.15
581.844          	1957.45
582.458  	2611.05
583.072 	2152.09
583.686  	1948.16
584.3  	2233.25
584.914 	1966.73
585.528  	1783.86
586.142 	1398.36
586.755  	1613.83
587.368 	1427.56
587.982  	2245.57
588.595 	1681.29
589.208  	1939.91
589.82 	2300.98
590.433  	1943
591.046  	2087.28
591.658 	2167.51
592.271  	2086.25
592.883        	1499.46
593.495 	1583.71
594.107 	1677.14
594.719          	2296.88
595.33  	1988.39
595.942  	1982.2
596.553   	1601.37
597.165   	2053.3
597.776  	1750.73
598.387  	1779.72
598.998      	2345.07
599.609    	1146.13
600.22  	1596.18
600.83  	1990.45
601.441  	1599.29
602.051  	1406.7
602.661     	1999.73
603.271 	1690.63
603.881   	2279.44
604.491   	1721.72
605.101     	2182.92
605.71   	1676.11
606.32   	2620.24
606.929 	2243.52
607.538     	1876.92
608.147  	1464.04
608.756  	2115.06
609.365    	1881.06
609.973 	2829.27
610.582 	1904.81
611.19 	1534.84
611.799 	1746.59
612.407    	2135.63
613.015  	1923.39
613.623  	2143.86
614.23 	1953.32
614.838  	2067.72
615.446   	2049.18
616.053 	1376.44
616.66       	1970.86
617.267 	1821.1
617.874   	2046.09
618.481  	2053.3
619.088  	2137.69
619.694     	1699.96
620.301 	1665.73
620.907 	1797.31
621.513  	1621.1
622.119   	2297.91
622.725   	1408.79
623.331  	2002.82
623.937 	2053.3
624.542  	2059.48
625.148 	1620.07
625.753  	1539
626.358 	2109.92
626.963  	1970.86
627.568   	1805.59
628.173     	1920.3
628.777  	2313.29
629.382  	1407.75
629.986      	1676.11
630.591   	2367.62
631.195 	1486.96
631.799   	1706.18
632.402  	1670.92
633.006   	1925.46
633.61  	1224.79
634.213   	1484.88
634.816       	1623.18
635.42  	1550.44
636.023 	1431.73
636.625    	1219.55
637.228   	1200.68
637.831  	1020.99
638.433  	1336.75
639.036  	1477.59
639.638  	1058.89
640.24  	1806.62
640.842 	1359.73
641.444  	1090.45
642.046   	992.546
642.647   	1151.38
643.249  	1459.88
643.85 	602.518
644.451 	913.407
645.052  	769.455
645.653 	703.631
646.254  	654.71
646.854  	840.446
647.455 	1577.47
648.055  	754.603
648.656   	736.559
649.256   	904.956
649.856 	621.7
650.455   	1007.3
651.055  	1153.47
651.655   	736.559
652.254 	863.726
652.853   	1434.86
653.452   	797.021
654.051  	679.179
654.65  	935.583
655.249     	1012.57
655.848  	360.674
656.446   	774.758
657.044 	245.493
657.643      	918.689
658.241  	946.139
658.839  	742.929
659.436   	604.65
660.034   	895.445
660.631 	699.38
661.229   	1162.92
661.826  	1358.69
662.423   	772.637
663.02    	1026.26
663.617  	947.194
664.214  	418.633
664.81    	660.031
665.406   	71.2967
666.003 	888.047
666.599   	684.496
667.195    	232.546
667.791 	346.704
668.386   	902.842
668.982  	1022.05
669.577 	326.275
670.173  	539.563
670.768 	675.989
671.363  	479.692
671.958   	1326.3
672.552   	445.428
673.147  	1002.03
673.742  	182.864
674.336        	739.744
674.93 	423.994
675.524   	292.912
676.118  	175.296
676.712  	309.06
677.305   	638.742
677.899    	485.042
678.492  	206.636
679.086 	1118.82
679.679  	422.922
680.271      	485.042
680.864     	352.078
681.457  	-80.0029
682.049  	564.119
682.642 	822.447
683.234  	1016.78
683.826 	152.58
684.418 	668.543
685.01 	757.786
685.602 	1095.7
686.193  	465.777
686.784   	460.423
687.376  	-11.3206
687.967  	296.143
688.558 	821.388
689.148        	622.766
689.739  	298.296
690.33  	279.987
690.92  	679.179
691.51    	213.116
692.1 	894.388
692.69  	1115.67
693.28  	392.887
693.87   	740.805
694.459  	324.124
695.049 	496.81
695.638 	227.15
696.227    	587.591
696.816  	752.481
697.405  	1131.43
697.994  	493.601
698.582 	846.797
699.17    	134.177
699.759 	68.0403
700.347  	411.126
700.935 	598.254
701.523  	871.129
702.11  	767.334
702.698    	316.593
703.285       	616.373
703.872 	361.749
704.459    	49.58
705.046    	53.9248
705.633  	227.15
706.22  	766.273
706.806   	1074.67
707.393  	807.618
707.979    	284.296
708.565  	614.242
709.151  	656.838
709.737 	260.589
710.322  	220.674
710.908 	207.716
711.493 	332.728
712.078  	1003.09
712.663  	589.724
713.248  	781.121
713.833 	142.839
714.418 	1382.7
715.002 	175.296
715.587 	284.296
716.171  	1133.53
716.755 	63.6978
717.339 	459.353
717.922 	25.6714
718.506 	620.635
719.089  	651.517
719.673 	-40.7337
720.256  	338.104
720.839 	758.847
721.422 	766.273
722.005  	613.176
722.587  	173.134
723.169 	541.699
723.752   	668.543
724.334  	557.715
724.916  	614.242
725.498  	715.319
726.079   	1310.61
726.661   	201.235
727.242  	284.296
727.823   	978.841
728.405 	863.726
728.985  	596.121
729.566  	533.153
730.147    	1103.06
730.727  	793.842
731.308  	381.08
731.888   	623.831
732.468   	483.972
733.048 	407.908
733.628   	483.972
734.207   	702.568
734.787 	301.526
735.366   	20.2347
735.945 	-125.893
736.524 	686.623
737.103 	802.32
737.682      	28.933
738.26 	581.191
738.839   	213.116
739.417  	731.25
739.995 	64.7835
740.573  	681.306
741.151   	730.188
741.728   	189.349
742.306  	355.302
742.883 	435.785
743.46  	840.446
744.037   	541.699
744.614     	520.331
745.191 	581.191
745.768      	501.088
746.344   	342.405
746.92  	822.447
747.496 	506.434
748.072  	740.805
748.648   	368.194
749.224   	758.847
749.799 	245.493
750.375   	445.428
750.95   	460.423
751.525  	728.065
752.1  	362.823
752.675  	217.435
753.249 	347.779
753.824 	494.67
754.398  	396.107
754.972 	349.929
755.546 	574.79
756.12 	819.27
756.694  	520.331
757.267 	666.415
757.841 	508.573
758.414 	1268.77
758.987  	684.496
759.56   	745.051
760.133 	31.1071
760.705  	1011.51
761.278  	348.854
761.85  	623.831
762.422   	210.956
762.994      	1113.57
763.566 	351.004
764.138     	434.713
764.709 	529.948
765.281   	722.754
765.852   	298.296
766.423     	413.271
766.994  	1047.32
767.564      	920.801
768.135 	141.756
768.706    	512.849
769.276 	611.045
769.846   	529.948
770.416  	234.704
770.986  	750.358
771.555   	860.552
772.125  	564.119
772.694  	312.289
773.263   	620.635
773.833    	1150.33
774.401     	304.755
774.97  	693.002
775.539  	480.762
776.107  	495.74
776.675    	677.052
777.243   	276.755
777.811  	764.152
778.379   	275.678
778.947    	581.191
779.514  	125.512
780.082    	492.531
780.649   	605.716
781.216  	166.645
781.783  	566.254
782.349  	1007.3
782.916   	173.134
783.482 	1138.78
784.048    	391.814
784.614  	547.038
785.18 	357.451
785.746  	915.52
786.312     	47.4074
786.877      	660.031
787.442  	76.7231
788.007    	1025.21
788.572      	671.734
789.137 	625.961
789.702    	609.979
790.266    	445.428
790.83  	797.021
791.395       	651.517
791.958    	503.226
792.522  	422.922
793.086 	754.603
793.65  	583.324
794.213 	22.4095
794.776  	60.4405
795.339 	595.055
795.902 	501.088
796.465   	1069.41
797.027 	781.121
797.59 	712.132
798.152  	400.399
798.714 	185.026
799.276 	442.214
799.837    	399.326
800.399  	575.857
800.96    	315.517
801.522 	1133.53
802.083   	511.78
802.644  	404.69
803.204  	417.561
803.765 	489.322
804.326 	623.831
804.886 	243.335
805.446  	1272.96
806.006      	813.974
806.566   	75.6379
807.125 	46.321
807.685 	858.436
808.244 	931.36
808.803    	678.116
809.362  	460.423
809.921  	207.716
810.48 	740.805
811.038  	401.472
811.596 	841.505
812.155  	-113.866
812.713 	766.273
813.271     	310.136
813.828 	425.066
814.386     	519.262
814.943   	1246.78
815.5   	548.106
816.057  	229.309
816.614  	397.18
817.171 	564.119
817.727 	720.63
818.284    	282.142
818.84  	988.33
819.396    	1170.27
819.952 	413.271
820.508   	785.361
821.063  	682.37
821.618 	926.081
822.174  	598.254
822.729   	715.319
823.284  	291.835
823.838 	694.065
824.393 	748.236
824.947      	265.979
825.501    	929.249
826.056  	528.88
826.609 	0.653076
827.163  	337.029
827.717  	565.187
828.27 	236.862
828.823  	661.095
829.376  	564.119
829.929  	102.755
830.482  	542.767
831.035  	528.88
831.587 	250.885
832.139    	449.713
832.691 	183.945
833.243     	-172.962
833.795 	-87.6455
834.346   	781.121
834.898  	522.468
835.449   	314.441
836  	217.435
836.551   	886.989
837.102  	782.181
837.652  	644.065
838.203    	542.767
838.753  	1376.44
839.303  	697.254
839.853   	325.199
840.402  	48.4938
840.952  	87.5727
841.501 	303.679
842.051 	349.929
842.6      	694.065
843.149  	1183.9
843.697 	385.374
844.246  	459.353
844.794  	719.568
845.342    	779
845.89 	539.563
846.438 	433.641
846.986    	77.8082
847.533 	800.201
848.081  	-72.3626
848.628     	749.297
849.175  	263.823
849.722     	101.671
850.268  	1200.68
850.815 	281.065
851.361  	439
851.907  	196.914
852.453   	1073.62
852.999  	399.326
853.545  	490.392
854.09 	802.32
854.636  	922.913
855.181     	539.563
855.726  	729.126
856.27  	660.031
856.815  	752.481
857.359  	-65.8155
857.904    	566.254
858.448  	316.593
858.992  	652.581
859.536  	775.819
860.079     	579.058
860.623    	588.657
861.166   	302.602
861.709  	552.377
862.252  	423.994
862.795  	261.667
863.337  	699.38
863.879    	769.455
864.422   	570.522
864.964   	250.885
865.505  	977.786
866.047  	426.138
866.589  	480.762
867.13  	156.908
867.671  	212.036
868.212  	551.309
868.753  	455.069
869.294   	723.816
869.834   	575.857
870.375    	604.65
870.915    	475.411
871.455    	935.583
871.994  	300.449
872.534   	292.912
873.073  	537.426
873.613   	220.674
874.152   	210.956
874.691  	264.901
875.229  	292.912
875.768  	638.742
876.306  	718.506
876.844   	476.481
877.382  	291.835
877.92  	701.505
878.458     	329.502
878.995  	569.455
879.533  	743.99
880.07  	722.754
880.607  	791.722
881.144   	647.259
881.68   	513.918
882.217  	618.504
882.753   	497.879
883.289   	430.426
883.825     	627.027
884.361    	505.365
884.896      	-51.6358
885.432   	292.912
885.967   	316.593
886.502  	467.918
887.037  	756.725
887.572  	-8.05451
888.106   	540.631
888.641  	334.879
889.175  	413.271
889.709  	425.066
890.242   	728.065
890.776  	721.692
891.309  	333.803
891.843     	437.928
892.376  	640.871
892.909    	712.132
893.442  	514.987
893.974  	466.848
894.506    	98.4179
895.039    	339.179
895.571   	155.826
896.102  	532.085
896.634  	413.271
897.166  	534.222
897.697  	223.912
898.228    	444.357
898.759  	316.593
899.29  	817.152
899.82        	915.52
900.351  	663.223
900.881  	682.37
901.411   	811.856
901.941  	926.081
902.47   	928.193
903                	521.4
903.529  	115.761
904.058  	30.02
904.588  	283.219
905.116     	406.836
905.645   	588.657
906.173    	186.107
906.702  	559.85
907.23  	533.153
907.757  	691.939
908.285       	697.254
908.813   	395.034
909.34  	431.498
909.867        	859.494
910.394  	837.271
910.921  	777.939
911.448  	728.065
911.974  	132.011
912.5   	689.813
913.026     	688.749
913.552    	230.388
914.078   	314.441
914.603  	-301.486
915.129  	556.648
915.654  	595.055
916.179   	733.374
916.704  	468.989
917.228   	109.259
917.753   	452.927
918.277  	196.914
918.801   	918.689
919.325   	668.543
919.849     	452.927
920.372     	586.524
920.896     	588.657
921.419  	729.126
921.942  	718.506
922.464    	582.258
922.987  	789.602
923.509    	431.498
924.032  	737.621
924.554  	178.54
925.075   	555.58
925.597    	539.563
926.119    	992.546
926.64   	539.563
927.161  	302.602
927.682  	-275.067
928.203  	666.415
928.723  	89.7421
929.244    	1005.19
929.764   	279.987
930.284   	58.2688
930.804     	560.917
931.323  	1153.47
931.843     	635.547
932.362   	601.452
932.881   	369.268
933.4  	192.592
933.919   	689.813
934.437   	384.301
934.956    	214.196
935.474  	279.987
935.992  	353.153
936.51   	376.785
937.027   	1171.31
937.545  	604.65
938.062   	688.749
938.579  	552.377
939.096      	999.924
939.612     	847.855
940.129  	561.985
940.645    	847.855
941.161     	374.638
941.677  	843.622
942.193  	116.845
942.708  	621.7
943.224     	55.0108
943.739  	758.847
944.254  	892.275
944.769     	643
945.283      	1153.47
945.798   	450.785
946.312   	688.749
946.826  	402.545
947.34  	239.02
947.853  	234.704
948.367  	323.048
948.88   	269.212
949.393  	689.813
949.906  	202.315
950.419  	222.833
950.931  	623.831
951.444   	732.312
951.956   	464.706
952.468     	-15.676
952.979     	320.896
953.491  	59.3547
954.002    	270.29
954.514      	48.4938
955.025   	371.416
955.536  	182.864
956.046   	853.146
956.557  	650.452
957.067  	325.199
957.577  	653.645
958.087   	12.6213
958.596   	44.1481
959.106  	793.842
959.615  	622.766
960.124   	775.819
960.633  	16.9721
961.142   	135.26
961.65      	470.059
962.159    	835.154
962.667  	-176.249
963.175     	401.472
963.683     	-221.217
964.19   	292.912
964.698   	6.09386
965.205  	857.378
965.712   	619.569
966.219   	451.856
966.725    	366.046
967.232  	434.713
967.738    	977.786
968.244  	58.2688
968.75  	382.154
969.255  	589.724
969.761     	496.81
970.266  	-88.7375
970.771  	524.606
971.276    	288.605
971.781  	203.396
972.285  	829.86
972.789  	377.859
973.293    	456.14
973.797    	384.301
974.301  	599.32
974.805  	657.902
975.308  	511.78
975.811    	68.0403
976.314    	902.842
976.817  	520.331
977.319     	754.603
977.822  	16.9721
978.324    	540.631
978.826  	581.191
979.328  	376.785
979.829     	260.589
980.33  	51.7525
980.832  	-122.612
981.333  	733.374
981.833    	-34.1946
982.334      	577.991
982.834    	-30.9257
983.335   	381.08
983.835   	214.196
984.334    	827.742
984.834  	146.086
985.333    	77.8082
985.833   	-175.153
986.332   	937.695
986.831  	523.537
987.329  	571.589
987.828    	135.26
988.326   	452.927
988.824   	577.991
989.322  	970.404
989.819  	333.803
990.317  	1249.93
990.814   	432.57
991.311   	772.637
991.808    	2.82952
992.305  	496.81
992.801    	647.259
993.298   	994.654
993.794   	273.523
994.29    	678.116
994.785       	853.146
995.281  	264.901
995.776  	167.726
996.271    	414.344
996.766   	272.445
997.261  	116.845
997.755   	361.749
998.249  	349.929
998.744  	382.154
999.237  	789.602
999.731  	290.758
1000.22     	566.254
1000.72 	750.358
1001.21       	219.594
1001.7  	180.702
1002.2 	572.656
1002.69 	544.903
1003.18  	161.236
1003.67 	752.481
1004.17 	477.552
1004.66 	485.042
1005.15 	507.503
1005.64  	1279.23
1006.13 	753.542
1006.62 	414.344
1007.11  	383.227
1007.6 	201.235
1008.09 	435.785
1008.58   	534.222
1009.07 	-81.0946
1009.56 	-151.058
1010.05 	698.317
1010.54 	904.956
1011.03  	557.715
1011.52 	250.885
1012.01  	644.065
1012.5    	770.516
1012.99    	742.929
1013.47  	633.417
1013.96 	974.623
1014.45  	33.281
1014.94    	400.399
1015.42 	600.386
1015.91 	63.6978
1016.4  	489.322
1016.88 	288.605
1017.37  	88.6574
1017.86  	725.941
1018.34 	383.227
1018.83 	156.908
1019.31  	-215.729
1019.8 	267.057
1020.29  	387.521
1020.77    	367.12
1021.26 	98.4179
1021.74 	519.262
1022.22  	401.472
1022.71 	494.67
1023.19  	246.571
1023.68  	781.121
1024.16 	429.354
1024.64 	1028.37
1025.13  	115.761
1025.61 	513.918
1026.09  	564.119
1026.58    	243.335
1027.06    	730.188
1027.54  	816.093
1028.02  	487.182
1028.5 	78.8933
1028.99  	789.602
1029.47 	1102.01
1029.95 	288.605
1030.43 	187.188
1030.91  	532.085
1031.39  	111.427
1031.87 	437.928
1032.35  	418.633
1032.83  	300.449
1033.31   	827.742
1033.79   	345.63
1034.27 	403.618
1034.75     	327.351
1035.23 	623.831
1035.71   	128.762
1036.18   	474.341
1036.66 	130.928
1037.14 	810.796
1037.62  	508.573
1038.1  	398.253
1038.57  	1057.84
1039.05      	1188.1
1039.53   	422.922
1040  	155.826
1040.48  	609.979
1040.96 	1436.95
1041.43  	486.112
1041.91  	535.29
1042.39    	1132.48
1042.86     	688.749
1043.34  	690.876
1043.81 	123.346
1044.29  	719.568
1044.76 	-120.425
1045.24  	300.449
1045.55 	1188.1