File: JinData/Spectra_output_0_1743438229.txt
Wavelength [nm]    	Intensity [counts]
344.912	-184.871
345.565 	-58.0339
346.219	55.1556
346.872 	-41.6784
347.526   	60.5853
348.179   	26.9036
348.832  	-12.2642
349.485	-39.4984
350.138  	-14.4419
350.791   	16.0294
351.444	42.1199
352.097	84.4629
352.75 	23.6418
353.402 	-53.6715
354.055        	66.0139
354.707 	102.899
355.359 	-5.73224
356.012	201.379
356.664   	109.403
357.316	-16.6198
357.968	192.736
358.62	110.487
359.272	102.899
359.923 	51.8973
360.575	102.899
361.226  	29.0779
361.878	-6.8208
362.529 	19.2921
363.181	133.238
363.832	26.9036
364.483  	111.571
365.134     	-38.4085
365.785	1.88638
366.436	84.4629
367.086 	102.899
367.737 	118.073
368.387	282.285
369.038	44.293
369.688	145.148
370.339	83.378
370.989 	249.95
371.639	-41.6784
372.289   	-79.8574
372.939   	62.7569
373.589 	67.0994
374.238       	68.185
374.888   	-51.4905
375.537  	54.0695
376.187 	123.49
376.836  	-80.9491
377.486   	153.806
378.135      	-43.8585
378.784 	92.0559
379.433   	66.0139
380.082   	75.7826
380.731  	157.052
381.379 	61.6711
382.028  	89.8867
382.676	-12.2642
383.325   	-0.290143
383.973	58.4135
384.622	-31.87
385.27 	116.989
385.918	20.3796
386.566  	52.9834
387.214 	42.1199
387.861	59.4994
388.509	124.573
389.157 	19.2921
389.804  	181.927
390.452	75.7826
391.099 	153.806
391.746	-27.5119
392.393	2.97458
393.04	-84.2243
393.687	-1.37847
394.334	-5.73224
394.981  	14.9418
395.628 	-49.3097
396.274 	35.5997
396.921 	-47.1291
397.567 	150.56
398.214  	-39.4984
398.86	16.0294
399.506 	9.50281
400.152	-37.3187
400.798  	176.522
401.444 	-24.2438
402.089	129.989
402.735	-101.699
403.38 	97.4781
404.026    	129.989
404.671 	80.1231
405.316 	17.117
405.962 	64.9282
406.607	39.9467
407.252	23.6418
407.896      	-8.99804
408.541   	235.927
409.186  	31.252
409.83	7.32691
410.475  	49.7248
411.119 	50.8111
411.764 	158.134
412.408	-90.7761
413.052  	110.487
413.696 	-8.99804
414.34 	-29.6909
414.984 	80.1231
415.627 	31.252
416.271  	43.2065
416.914 	92.0559
417.558	60.5853
418.201	30.165
418.844 	174.359
419.487	150.56
420.13 	85.5477
420.773	-15.5309
421.416  	-86.408
422.059	-37.3187
422.701 	106.152
423.344   	-92.9604
423.986	83.378
424.629	31.252
425.271    	-55.8526
425.913	126.74
426.555 	99.6467
427.197	-7.9094
427.839     	45.3794
428.481	86.6325
429.122 	-43.8585
429.764	-51.4905
430.405 	48.6386
431.047	-51.4905
431.688   	9.50281
432.329	75.7826
432.97 	-89.684
433.611    	20.3796
434.252	38.86
434.892 	73.612
435.533 	34.5128
436.174	175.44
436.814	127.823
437.454	-16.6198
438.095 	-7.9094
438.735	-87.5
439.375 	21.4671
440.015 	17.117
440.654  	107.236
441.294 	76.8677
441.934	121.323
442.573	115.906
443.213	-75.4912
443.852 	97.4781
444.491     	-31.87
445.13 	58.4135
445.769	31.252
446.408      	8.41488
447.047  	-17.7088
447.686 	82.2931
448.324	62.7569
448.963	51.8973
449.601  	93.1404
450.239	68.185
450.878	82.2931
451.516  	-32.9596
452.154	118.073
452.792	96.3938
453.429 	2.97458
454.067  	165.707
454.705    	12.7663
455.342   	112.655
455.979 	36.6865
456.617	-48.2194
457.254	14.9418
457.891   	133.238
458.528	69.2705
459.165	-1.37847
459.801	21.4671
460.438    	99.6467
461.075 	101.815
461.711        	25.8164
462.347	-28.6014
462.983 	-58.0339
463.62 	-10.0867
464.256 	34.5128
464.891	88.802
465.527	37.7733
466.163 	34.5128
466.798	26.9036
467.434  	42.1199
468.069     	12.7663
468.705    	73.612
469.34	-26.4225
469.975 	45.3794
470.61  	-10.0867
471.245 	74.6973
471.879	-22.0653
472.514   	84.4629
473.148        	-53.6715
473.783  	20.3796
474.417 	-56.9432
475.051	152.724
475.685	82.2931
476.319	-8.99804
476.953 	121.323
477.587 	-53.6715
478.221	-10.0867
478.854 	52.9834
479.488 	-38.4085
480.121       	38.86
480.754 	-43.8585
481.387   	-48.2194
482.02 	-32.9596
482.653 	85.5477
483.286     	-95.1448
483.919	126.74
484.551 	-79.8574
485.184 	21.4671
485.816  	59.4994
486.449 	85.5477
487.081  	85.5477
487.713 	-41.6784
488.345 	83.378
488.976	77.9529
489.608	54.0695
490.24 	124.573
490.871 	112.655
491.503   	29.0779
492.134	26.9036
492.765    	-23.1545
493.396 	85.5477
494.027   	-28.6014
494.658   	57.3276
495.289  	90.9713
495.919  	80.1231
496.55     	-67.8522
497.18	-53.6715
497.81 	2.97458
498.441   	10.5907
499.071 	141.9
499.701    	85.5477
500.331 	-41.6784
500.96 	84.4629
501.59 	16.0294
502.219	85.5477
502.849 	0.798142
503.478 	93.1404
504.107 	-80.9491
504.736      	-74.3998
505.365 	-42.7684
505.994      	101.815
506.623 	-126.841
507.251    	-4.64373
507.88	-58.0339
508.508 	48.6386
509.137 	68.185
509.765 	-53.6715
510.393 	-15.5309
511.021 	41.0333
511.649   	-52.5809
512.276     	-27.5119
512.904 	-30.7804
513.531   	4.06273
514.159 	42.1199
514.786     	-70.0346
515.413 	45.3794
516.04 	-68.9434
516.667   	59.4994
517.294  	148.395
517.921  	107.236
518.547    	106.152
519.174      	49.7248
519.8  	58.4135
520.426 	77.9529
521.053 	61.6711
521.679  	35.5997
522.305 	47.5522
522.93  	108.319
523.556   	-17.7088
524.182  	57.3276
524.807 	131.072
525.432  	152.724
526.057  	17.117
526.683     	-14.4419
527.308     	51.8973
527.932 	113.738
528.557 	38.86
529.182   	57.3276
529.806   	68.185
530.431  	-41.6784
531.055  	-40.5884
531.679 	-15.5309
532.303  	51.8973
532.927    	-31.87
533.551 	-10.0867
534.175     	51.8973
534.798 	79.038
535.422         	-73.3084
536.045 	7.32691
536.668    	-104.977
537.292  	-37.3187
537.915 	10.5907
538.538 	79.038
539.16  	52.9834
539.783   	-0.290143
540.406   	-38.4085
541.028  	50.8111
541.65  	106.152
542.272     	13.8541
542.895       	61.6711
543.516  	64.9282
544.138  	5.15083
544.76   	80.1231
545.382 	8.41488
546.003 	-53.6715
546.625    	89.8867
547.246  	79.038
547.867 	-19.887
548.488 	48.6386
549.109  	-32.9596
549.73 	-99.5143
550.35  	8.41488
550.971      	2.97458
551.591  	126.74
552.211    	10.5907
552.832  	51.8973
553.452 	-12.2642
554.072  	58.4135
554.691 	36.6865
555.311  	30.165
555.931 	-20.9761
556.55 	52.9834
557.17  	163.544
557.789 	105.068
558.408  	-35.1391
559.027    	127.823
559.646   	83.378
560.264 	98.5625
560.883   	94.2249
561.502  	-3.55527
562.12  	54.0695
562.738 	121.323
563.356 	-49.3097
563.974   	35.5997
564.592    	-48.2194
565.21 	-61.3063
565.828 	71.4414
566.445 	13.8541
567.063  	-25.3331
567.68   	35.5997
568.297   	-2.46685
568.914  	-76.5827
569.531 	30.165
570.148  	87.7173
570.765  	-15.5309
571.381   	52.9834
571.998    	118.073
572.614 	29.0779
573.23 	84.4629
573.846 	-82.0408
574.462  	112.655
575.078   	66.0139
575.694   	-44.9487
576.309 	-42.7684
576.925   	115.906
577.54  	74.6973
578.155  	-11.1755
578.77 	49.7248
579.385 	-74.3998
580                	7.32691
580.615    	64.9282
581.229 	67.0994
581.844          	11.6785
582.458  	116.989
583.072 	19.2921
583.686  	0.798142
584.3  	17.117
584.914 	50.8111
585.528  	6.2389
586.142 	-63.4881
586.755  	36.6865
587.368 	-30.7804
587.982  	164.625
588.595 	-6.8208
589.208  	56.2416
589.82 	84.4629
590.433  	51.8973
591.046  	125.657
591.658 	58.4135
592.271  	-120.28
592.883        	42.1199
593.495 	67.0994
594.107 	10.5907
594.719          	124.573
595.33  	128.906
595.942  	103.983
596.553   	-73.3084
597.165   	42.1199
597.776  	68.185
598.387  	-52.5809
598.998      	-31.87
599.609    	23.6418
600.22  	-91.8682
600.83  	14.9418
601.441  	-54.762
602.051  	-12.2642
602.661     	27.9907
603.271 	107.236
603.881   	90.9713
604.491   	-18.7979
605.101     	86.6325
605.71   	0.798142
606.32   	56.2416
606.929 	5.15083
607.538     	-19.887
608.147  	-85.3161
608.756  	19.2921
609.365    	16.0294
609.973 	88.802
610.582 	-12.2642
611.19 	-35.1391
611.799 	-68.9434
612.407    	61.6711
613.015  	76.8677
613.623  	50.8111
614.23 	-20.9761
614.838  	100.731
615.446   	73.612
616.053 	-153.102
616.66       	21.4671
617.267 	108.319
617.874   	123.49
618.481  	51.8973
619.088  	13.8541
619.694     	71.4414
620.301 	31.252
620.907 	-28.6014
621.513  	-0.290143
622.119   	99.6467
622.725   	-83.1325
623.331  	49.7248
623.937 	22.5545
624.542  	122.407
625.148 	-7.9094
625.753  	-12.2642
626.358 	17.117
626.963  	71.4414
627.568   	55.1556
628.173     	107.236
628.777  	45.3794
629.382  	-23.1545
629.986      	81.2081
630.591   	47.5522
631.195 	-34.0493
631.799   	62.7569
632.402  	24.7291
633.006   	200.299
633.61  	-13.3531
634.213   	-11.1755
634.816       	-1.37847
635.42  	129.989
636.023 	24.7291
636.625    	61.6711
637.228   	69.2705
637.831  	41.0333
638.433  	44.293
639.036  	161.38
639.638  	74.6973
640.24  	0.798142
640.842 	66.0139
641.444  	71.4414
642.046   	90.9713
642.647   	26.9036
643.249  	25.8164
643.85 	-30.7804
644.451 	135.404
645.052  	-55.8526
645.653 	-49.3097
646.254  	-39.4984
646.854  	76.8677
647.455 	31.252
648.055  	-47.1291
648.656   	-58.0339
649.256   	-43.8585
649.856 	-47.1291
650.455   	43.2065
651.055  	71.4414
651.655   	-11.1755
652.254 	31.252
652.853   	23.6418
653.452   	105.068
654.051  	43.2065
654.65  	63.8426
655.249     	6.2389
655.848  	-47.1291
656.446   	89.8867
657.044 	-95.1448
657.643      	24.7291
658.241  	-36.2288
658.839  	26.9036
659.436   	-19.887
660.034   	115.906
660.631 	76.8677
661.229   	157.052
661.826  	121.323
662.423   	23.6418
663.02    	154.888
663.617  	72.5267
664.214  	44.293
664.81    	77.9529
665.406   	10.5907
666.003 	-0.290143
666.599   	-34.0493
667.195    	-78.7658
667.791 	-85.3161
668.386   	139.735
668.982  	148.395
669.577 	-82.0408
670.173  	19.2921
670.768 	50.8111
671.363  	42.1199
671.958   	190.574
672.552   	1.88638
673.147  	92.0559
673.742  	-126.841
674.336        	19.2921
674.93 	-18.7979
675.524   	-96.2371
676.118  	18.2046
676.712  	51.8973
677.305   	99.6467
677.899    	-114.814
678.492  	20.3796
679.086 	125.657
679.679  	-83.1325
680.271      	-11.1755
680.864     	10.5907
681.457  	-10.0867
682.049  	-32.9596
682.642 	69.2705
683.234  	74.6973
683.826 	-1.37847
684.418 	42.1199
685.01 	45.3794
685.602 	152.724
686.193  	-30.7804
686.784   	-84.2243
687.376  	11.6785
687.967  	35.5997
688.558 	95.3094
689.148        	50.8111
689.739  	64.9282
690.33  	44.293
690.92  	0.798142
691.51    	-131.216
692.1 	112.655
692.69  	98.5625
693.28  	17.117
693.87   	33.4259
694.459  	-71.1258
695.049 	7.32691
695.638 	-36.2288
696.227    	217.579
696.816  	471.272
697.405  	131.072
697.994  	30.165
698.582 	57.3276
699.17    	-63.4881
699.759 	32.339
700.347  	35.5997
700.935 	-40.5884
701.523  	224.056
702.11  	9.50281
702.698    	6.2389
703.285       	-27.5119
703.872 	-13.3531
704.459    	41.0333
705.046    	-110.441
705.633  	-60.2155
706.22  	158.134
706.806   	653.787
707.393  	97.4781
707.979    	19.2921
708.565  	42.1199
709.151  	139.735
709.737 	23.6418
710.322  	47.5522
710.908 	-29.6909
711.493 	-54.762
712.078  	93.1404
712.663  	-72.2171
713.248  	6.2389
713.833 	16.0294
714.418 	177.603
715.002 	79.038
715.587 	9.50281
716.171  	-6.8208
716.755 	19.2921
717.339 	-8.99804
717.922 	-110.441
718.506 	88.802
719.089  	33.4259
719.673 	-11.1755
720.256  	-27.5119
720.839 	52.9834
721.422 	113.738
722.005  	-4.64373
722.587  	-22.0653
723.169 	-27.5119
723.752   	1.88638
724.334  	92.0559
724.916  	44.293
725.498  	38.86
726.079   	139.735
726.661   	-16.6198
727.242  	6.2389
727.823   	11.6785
728.405 	50.8111
728.985  	243.479
729.566  	14.9418
730.147    	189.494
730.727  	-31.87
731.308  	108.319
731.888   	-2.46685
732.468   	-11.1755
733.048 	-64.579
733.628   	2.97458
734.207   	29.0779
734.787 	-0.290143
735.366   	-78.7658
735.945 	-64.579
736.524 	60.5853
737.103 	90.9713
737.682      	-47.1291
738.26 	1207.11
738.839   	702.71
739.417  	176.522
739.995 	74.6973
740.573  	57.3276
741.151   	118.073
741.728   	-35.1391
742.306  	23.6418
742.883 	-27.5119
743.46  	64.9282
744.037   	25.8164
744.614     	105.068
745.191 	32.339
745.768      	-10.0867
746.344   	-71.1258
746.92  	127.823
747.496 	80.1231
748.072  	31.252
748.648   	119.156
749.224   	77.9529
749.799 	1053.77
750.375   	11595.8
750.95   	7644.01
751.525  	5231.31
752.1  	1411.01
752.675  	27.9907
753.249 	14.9418
753.824 	61.6711
754.398  	19.2921
754.972 	19.2921
755.546 	34.5128
756.12 	31.252
756.694  	-72.2171
757.267 	81.2081
757.841 	21.4671
758.414 	67.0994
758.987  	52.9834
759.56   	-2.46685
760.133 	12.7663
760.705  	107.236
761.278  	14.9418
761.85  	-20.9761
762.422   	-66.7611
762.994      	925.166
763.566 	6246.9
764.138     	2262.13
764.709 	116.989
765.281   	57.3276
765.852   	-71.1258
766.423     	21.4671
766.994  	26.9036
767.564      	84.4629
768.135 	-37.3187
768.706    	-23.1545
769.276 	10.5907
769.846   	7.32691
770.416  	-3.55527
770.986  	70.3559
771.555   	36.6865
772.125  	297.363
772.694  	644.207
773.263   	32.339
773.833    	189.494
774.401     	0.798142
774.97  	106.152
775.539  	59.4994
776.107  	49.7248
776.675    	56.2416
777.243   	96.3938
777.811  	-23.1545
778.379   	30.165
778.947    	19.2921
779.514  	-34.0493
780.082    	-16.6198
780.649   	58.4135
781.216  	-71.1258
781.783  	80.1231
782.349  	51.8973
782.916   	26.9036
783.482 	93.1404
784.048    	6.2389
784.614  	9.50281
785.18 	-54.762
785.746  	30.165
786.312     	-22.0653
786.877      	72.5267
787.442  	-127.934
788.007    	12.7663
788.572      	199.219
789.137 	31.252
789.702    	-8.99804
790.266    	27.9907
790.83  	144.065
791.395       	37.7733
791.958    	1.88638
792.522  	-65.6701
793.086 	-48.2194
793.65  	92.0559
794.213 	-15.5309
794.776  	607.99
795.339 	160.298
795.902 	101.815
796.465   	126.74
797.027 	-13.3531
797.59 	162.462
798.152  	89.8867
798.714 	-75.4912
799.276 	72.5267
799.837    	85.5477
800.399  	222.977
800.96    	343.623
801.522 	824.707
802.083   	134.321
802.644  	119.156
803.204  	-29.6909
803.765 	-24.2438
804.326 	-46.0389
804.886 	13.8541
805.446  	211.1
806.006      	146.23
806.566   	-60.2155
807.125 	-8.99804
807.685 	103.983
808.244 	128.906
808.803    	100.731
809.362  	-32.9596
809.921  	444.5
810.48 	967.381
811.038  	4254.75
811.596 	5692.63
812.155  	1355.69
812.713 	110.487
813.271     	38.86
813.828 	-59.1247
814.386     	22.5545
814.943   	205.7
815.5   	38.86
816.057  	-103.885
816.614  	-109.348
817.171 	62.7569
817.727 	39.9467
818.284    	31.252
818.84  	84.4629
819.396    	213.26
819.952 	96.3938
820.508   	180.846
821.063  	111.571
821.618 	70.3559
822.174  	93.1404
822.729   	133.238
823.284  	17.117
823.838 	30.165
824.393 	92.0559
824.947      	73.612
825.501    	56.2416
826.056  	300.593
826.609 	160.298
827.163  	55.1556
827.717  	27.9907
828.27 	12.7663
828.823  	99.6467
829.376  	59.4994
829.929  	-59.1247
830.482  	70.3559
831.035  	-16.6198
831.587 	47.5522
832.139    	-16.6198
832.691 	9.50281
833.243     	-97.3295
833.795 	-82.0408
834.346   	81.2081
834.898  	-64.579
835.449   	-19.887
836  	-49.3097
836.551   	57.3276
837.102  	63.8426
837.652  	-24.2438
838.203    	70.3559
838.753  	210.02
839.303  	95.3094
839.853   	-6.8208
840.402  	1191.38
840.952  	348.997
841.501 	246.715
842.051 	2381.07
842.6      	647.401
843.149  	238.085
843.697 	33.4259
844.246  	243.479
844.794  	86.6325
845.342    	51.8973
845.89 	68.185
846.438 	11.6785
846.986    	-13.3531
847.533 	66.0139
848.081  	-5.73224
848.628     	98.5625
849.175  	59.4994
849.722     	90.9713
850.268  	136.487
850.815 	-119.186
851.361  	64.9282
851.907  	16.0294
852.453   	-13.3531
852.999  	14.9418
853.545  	32.339
854.09 	70.3559
854.636  	-2.46685
855.181     	51.8973
855.726  	-4.64373
856.27  	-52.5809
856.815  	-16.6198
857.359  	-53.6715
857.904    	39.9467
858.448  	27.9907
858.992  	59.4994
859.536  	31.252
860.079     	85.5477
860.623    	11.6785
861.166   	135.404
861.709  	106.152
862.252  	-43.8585
862.795  	-94.0526
863.337  	32.339
863.879    	24.7291
864.422   	5.15083
864.964   	123.49
865.505  	102.899
866.047  	115.906
866.589  	-58.0339
867.13  	-16.6198
867.671  	-27.5119
868.212  	29.0779
868.753  	52.9834
869.294   	24.7291
869.834   	55.1556
870.375    	42.1199
870.915    	160.298
871.455    	83.378
871.994  	-108.256
872.534   	39.9467
873.073  	86.6325
873.613   	-38.4085
874.152   	-37.3187
874.691  	-46.0389
875.229  	21.4671
875.768  	-39.4984
876.306  	58.4135
876.844   	12.7663
877.382  	60.5853
877.92  	13.8541
878.458     	-64.579
878.995  	23.6418
879.533  	25.8164
880.07  	-30.7804
880.607  	134.321
881.144   	55.1556
881.68   	99.6467
882.217  	-78.7658
882.753   	-67.8522
883.289   	26.9036
883.825     	-39.4984
884.361    	11.6785
884.896      	-113.72
885.432   	-4.64373
885.967   	18.2046
886.502  	-100.607
887.037  	32.339
887.572  	72.5267
888.106   	84.4629
888.641  	56.2416
889.175  	103.983
889.709  	84.4629
890.242   	109.403
890.776  	109.403
891.309  	-12.2642
891.843     	-40.5884
892.376  	-2.46685
892.909    	111.571
893.442  	48.6386
893.974  	60.5853
894.506    	-108.256
895.039    	-5.73224
895.571   	-62.3972
896.102  	22.5545
896.634  	-15.5309
897.166  	-53.6715
897.697  	-23.1545
898.228    	-8.99804
898.759  	93.1404
899.29  	49.7248
899.82        	-46.0389
900.351  	85.5477
900.881  	124.573
901.411   	64.9282
901.941  	122.407
902.47   	86.6325
903                	-4.64373
903.529  	-52.5809
904.058  	-26.4225
904.588  	-42.7684
905.116     	35.5997
905.645   	-2.46685
906.173    	45.3794
906.702  	-58.0339
907.23  	24.7291
907.757  	-6.8208
908.285       	-64.579
908.813   	-18.7979
909.34  	-30.7804
909.867        	1.88638
910.394  	64.9282
910.921  	368.337
911.448  	277.976
911.974  	33.4259
912.5   	47.5522
913.026     	-66.7611
913.552    	-42.7684
914.078   	-0.290143
914.603  	-20.9761
915.129  	114.822
915.654  	62.7569
916.179   	-85.3161
916.704  	-72.2171
917.228   	-79.8574
917.753   	164.625
918.277  	-103.885
918.801   	133.238
919.325   	31.252
919.849     	-18.7979
920.372     	-102.792
920.896     	80.1231
921.419  	-20.9761
921.942  	32.339
922.464    	-47.1291
922.987  	95.3094
923.509    	89.8867
924.032  	185.17
924.554  	100.731
925.075   	-63.4881
925.597    	-12.2642
926.119    	192.736
926.64   	-13.3531
927.161  	2.97458
927.682  	-24.2438
928.203  	113.738
928.723  	-87.5
929.244    	176.522
929.764   	-96.2371
930.284   	-50.4001
930.804     	9.50281
931.323  	129.989
931.843     	-49.3097
932.362   	75.7826
932.881   	102.899
933.4  	-31.87
933.919   	62.7569
934.437   	14.9418
934.956    	45.3794
935.474  	-40.5884
935.992  	31.252
936.51   	38.86
937.027   	83.378
937.545  	68.185
938.062   	88.802
938.579  	35.5997
939.096      	128.906
939.612     	121.323
940.129  	52.9834
940.645    	124.573
941.161     	-12.2642
941.677  	71.4414
942.193  	-31.87
942.708  	-64.579
943.224     	42.1199
943.739  	-13.3531
944.254  	128.906
944.769     	-8.99804
945.283      	124.573
945.798   	1.88638
946.312   	97.4781
946.826  	34.5128
947.34  	12.7663
947.853  	-26.4225
948.367  	21.4671
948.88   	-34.0493
949.393  	-46.0389
949.906  	-68.9434
950.419  	21.4671
950.931  	16.0294
951.444   	-1.37847
951.956   	85.5477
952.468     	-25.3331
952.979     	74.6973
953.491  	48.6386
954.002    	5.15083
954.514      	-25.3331
955.025   	-36.2288
955.536  	-8.99804
956.046   	35.5997
956.557  	74.6973
957.067  	-41.6784
957.577  	112.655
958.087   	48.6386
958.596   	-52.5809
959.106  	-5.73224
959.615  	126.74
960.124   	-32.9596
960.633  	-124.654
961.142   	-71.1258
961.65      	11.6785
962.159    	-4.64373
962.667  	-130.122
963.175     	-30.7804
963.683     	-124.654
964.19   	-99.5143
964.698   	26.9036
965.205  	42.1199
965.712   	4.06273
966.219   	95.3094
966.725    	-2.46685
967.232  	208.94
967.738    	128.906
968.244  	-27.5119
968.75  	-83.1325
969.255  	97.4781
969.761     	-41.6784
970.266  	-16.6198
970.771  	39.9467
971.276    	41.0333
971.781  	38.86
972.285  	132.155
972.789  	-25.3331
973.293    	-66.7611
973.797    	4.06273
974.301  	-7.9094
974.805  	88.802
975.308  	24.7291
975.811    	-143.251
976.314    	45.3794
976.817  	92.0559
977.319     	44.293
977.822  	-39.4984
978.324    	31.252
978.826  	-35.1391
979.328  	-30.7804
979.829     	-19.887
980.33  	12.7663
980.832  	-1.37847
981.333  	100.731
981.833    	-95.1448
982.334      	10.5907
982.834    	-103.885
983.335   	54.0695
983.835   	102.899
984.334    	72.5267
984.834  	-108.256
985.333    	-42.7684
985.833   	-88.592
986.332   	18.2046
986.831  	-25.3331
987.329  	68.185
987.828    	-60.2155
988.326   	29.0779
988.824   	86.6325
989.322  	161.38
989.819  	-25.3331
990.317  	163.544
990.814   	26.9036
991.311   	45.3794
991.808    	2.97458
992.305  	-35.1391
992.801    	-7.9094
993.298   	144.065
993.794   	77.9529
994.29    	10.5907
994.785       	82.2931
995.281  	36.6865
995.776  	-18.7979
996.271    	62.7569
996.766   	54.0695
997.261  	-66.7611
997.755   	-92.9604
998.249  	11.6785
998.744  	-7.9094
999.237  	29.0779
999.731  	24.7291
1000.22     	-4.64373
1000.72 	33.4259
1001.21       	-5.73224
1001.7  	-78.7658
1002.2 	133.238
1002.69 	42.1199
1003.18  	-98.4219
1003.67 	-49.3097
1004.17 	-52.5809
1004.66 	79.038
1005.15 	167.87
1005.64  	0.798142
1006.13 	-115.907
1006.62 	-16.6198
1007.11  	-129.028
1007.6 	-54.762
1008.09 	62.7569
1008.58   	-100.607
1009.07 	67.0994
1009.56 	-38.4085
1010.05 	61.6711
1010.54 	39.9467
1011.03  	131.072
1011.52 	-39.4984
1012.01  	116.989
1012.5    	64.9282
1012.99    	36.6865
1013.47  	82.2931
1013.96 	16.0294
1014.45  	38.86
1014.94    	58.4135
1015.42 	49.7248
1015.91 	-16.6198
1016.4  	24.7291
1016.88 	71.4414
1017.37  	16.0294
1017.86  	112.655
1018.34 	37.7733
1018.83 	14.9418
1019.31  	-78.7658
1019.8 	-90.7761
1020.29  	29.0779
1020.77    	26.9036
1021.26 	26.9036
1021.74 	21.4671
1022.22  	63.8426
1022.71 	79.038
1023.19  	-83.1325
1023.68  	126.74
1024.16 	72.5267
1024.64 	58.4135
1025.13  	-52.5809
1025.61 	-13.3531
1026.09  	50.8111
1026.58    	61.6711
1027.06    	80.1231
1027.54  	2.97458
1028.02  	18.2046
1028.5 	45.3794
1028.99  	-34.0493
1029.47 	85.5477
1029.95 	102.899
1030.43 	-34.0493
1030.91  	79.038
1031.39  	7.32691
1031.87 	-14.4419
1032.35  	-110.441
1032.83  	0.798142
1033.31   	88.802
1033.79   	41.0333
1034.27 	50.8111
1034.75     	-17.7088
1035.23 	-13.3531
1035.71   	-100.607
1036.18   	-114.814
1036.66 	-11.1755
1037.14 	90.9713
1037.62  	-42.7684
1038.1  	33.4259
1038.57  	7.32691
1039.05      	46.4659
1039.53   	97.4781
1040  	-31.87
1040.48  	36.6865
1040.96 	-19.887
1041.43  	49.7248
1041.91  	71.4414
1042.39    	51.8973
1042.86     	-31.87
1043.34  	166.789
1043.81 	32.339
1044.29  	-35.1391
1044.76 	13.8541
1045.24  	-5.73224
1045.55 	68.185