File: JinData/Spectra_output_0_1736789367.txt
Wavelength [nm]    	Intensity [counts]
344.912	-1712.17
345.565 	-1785.69
346.219	535.575
346.872 	364.184
347.526   	583.609
348.179   	831.201
348.832  	664.571
349.485	715.602
350.138  	781.403
350.791   	662.443
351.444	571.874
352.097	558
352.75 	597.472
353.402 	412.485
354.055        	769.738
354.707 	749.58
355.359 	781.403
356.012	1246.02
356.664   	952.752
357.316	604.934
357.968	999.151
358.62	1086.52
359.272	350.215
359.923 	950.641
360.575	796.244
361.226  	898.897
361.878	857.66
362.529 	668.826
363.181	468.204
363.832	270.577
364.483  	1070.75
365.134     	696.474
365.785	686.906
366.436	608.132
367.086 	1335.98
367.737 	889.385
368.387	1125.4
369.038	637.961
369.688	1605.8
370.339	727.286
370.989 	1312.98
371.639	317.956
372.289   	686.906
372.939   	753.825
373.589 	692.222
374.238       	279.197
374.888   	970.686
375.537  	660.314
376.187 	1102.29
376.836  	669.89
377.486   	586.808
378.135      	724.1
378.784 	761.252
379.433   	572.941
380.082   	1111.75
380.731  	612.395
381.379 	612.395
382.028  	1054.96
382.676	1306.71
383.325   	565.471
383.973	650.736
384.622	786.704
385.27 	1454.94
385.918	639.025
386.566  	890.442
387.214 	723.038
387.861	880.928
388.509	727.286
389.157 	461.78
389.804  	994.935
390.452	565.471
391.099 	842.846
391.746	532.37
392.393	252.251
393.04	408.194
393.687	712.415
394.334	604.934
394.981  	931.642
395.628 	945.365
396.274 	521.685
396.921 	134.465
397.567 	555.865
398.214  	554.797
398.86	496.025
399.506 	409.267
400.152	382.44
400.798  	1076
401.444 	714.54
402.089	648.607
402.735	360.961
403.38 	1199.91
404.026    	1002.31
404.671 	1001.26
405.316 	647.543
405.962 	941.143
406.607	878.813
407.252	971.74
407.896      	430.712
408.541   	1324.48
409.186  	735.78
409.83	562.269
410.475  	260.876
411.119 	319.032
411.764 	934.809
412.408	203.684
413.052  	908.407
413.696 	588.941
414.34 	232.834
414.984 	735.78
415.627 	506.719
416.271  	566.538
416.914 	543.051
417.558	740.027
418.201	593.207
418.844 	613.46
419.487	1063.38
420.13 	490.677
420.773	364.184
421.416  	665.635
422.059	620.919
422.701 	506.719
423.344   	411.412
423.986	645.414
424.629	460.709
425.271    	305.042
425.913	1050.75
426.555 	649.672
427.197	672.018
427.839     	541.983
428.481	1016.01
429.122 	646.478
429.764	582.542
430.405 	728.348
431.047	303.966
431.688   	820.612
432.329	368.48
432.97 	-111.389
433.611    	94.3695
434.252	614.526
434.892 	534.506
435.533 	847.079
436.174	1281.61
436.814	1475.78
437.454	187.476
438.095 	421.064
438.735	618.788
439.375 	899.954
440.015 	619.853
440.654  	1032.86
441.294 	1050.75
441.934	1029.7
442.573	749.58
443.213	267.344
443.852 	454.283
444.491     	796.244
445.13 	553.729
445.769	1056.02
446.408      	623.05
447.047  	523.822
447.686 	572.941
448.324	458.567
448.963	353.439
449.601  	918.97
450.239	575.075
450.878	525.959
451.516  	563.337
452.154	1176.84
452.792	859.776
453.429 	701.789
454.067  	1436.18
454.705    	631.571
455.342   	929.53
455.979 	586.808
456.617	779.283
457.254	954.862
457.891   	793.064
458.528	224.2
459.165	732.595
459.801	1064.43
460.438    	678.399
461.075 	609.197
461.711        	12.9113
462.347	502.442
462.983 	343.766
463.62 	122.551
464.256 	610.263
464.891	795.184
465.527	327.637
466.163 	439.285
466.798	387.807
467.434  	243.623
468.069     	508.858
468.705    	463.921
469.34	642.22
469.975 	802.602
470.61  	401.758
471.245 	1018.12
471.879	352.365
472.514   	695.411
473.148        	107.38
473.783  	535.575
474.417 	84.6075
475.051	1200.96
475.685	471.415
476.319	296.43
476.953 	987.557
477.587 	525.959
478.221	576.142
478.854 	13.9991
479.488 	752.763
480.121       	1136.96
480.754 	-53.5261
481.387   	839.67
482.02 	842.846
482.653 	1396.55
483.286     	356.663
483.919	728.348
484.551 	126.884
485.184 	701.789
485.816  	475.697
486.449 	982.285
487.081  	1120.15
487.713 	535.575
488.345 	850.254
488.976	818.493
489.608	889.385
490.24 	744.273
490.871 	565.471
491.503   	769.738
492.134	200.443
492.765    	841.787
493.396 	829.083
494.027   	575.075
494.658   	1103.34
495.289  	1381.93
495.919  	348.066
496.55     	69.4152
497.18	657.122
497.81 	940.087
498.441   	467.133
499.071 	696.474
499.701    	772.92
500.331 	810.019
500.96 	607.066
501.59 	672.018
502.219	652.865
502.849 	978.068
503.478 	449.999
504.107 	326.562
504.736      	829.083
505.365 	481.047
505.994      	887.271
506.623 	373.85
507.251    	808.96
507.88	236.071
508.508 	751.702
509.137 	923.195
509.765 	334.09
510.393 	467.133
511.021 	356.663
511.649   	416.774
512.276     	891.499
512.904 	225.279
513.531   	758.069
514.159 	664.571
514.786     	536.643
515.413 	388.881
516.04 	531.301
516.667   	1046.54
517.294  	998.097
517.921  	918.97
518.547    	967.521
519.174      	797.304
519.8  	202.603
520.426 	735.78
521.053 	838.612
521.679  	544.119
522.305 	583.609
522.93  	1326.57
523.556   	429.64
524.182  	359.886
524.807 	310.423
525.432  	764.434
526.057  	532.37
526.683     	360.961
527.308     	956.972
527.932 	324.41
528.557 	642.22
529.182   	529.165
529.806   	214.484
530.431  	269.499
531.055  	538.779
531.679 	136.631
532.303  	1253.35
532.927    	543.051
533.551 	597.472
534.175     	550.526
534.798 	884.1
535.422         	197.202
536.045 	329.788
536.668    	421.064
537.292  	612.395
537.915 	881.985
538.538 	485.328
539.16  	646.478
539.783   	745.334
540.406   	948.531
541.028  	443.571
541.65  	979.122
542.272     	486.397
542.895       	1086.52
543.516  	700.726
544.138  	789.884
544.76   	915.802
545.382 	532.37
546.003 	190.718
546.625    	549.459
547.246  	768.677
547.867 	710.29
548.488 	593.207
549.109  	278.12
549.73 	109.548
550.35  	436.071
550.971      	574.008
551.591  	659.25
552.211    	866.123
552.832  	753.825
553.452 	803.662
554.072  	646.478
554.691 	1264.86
555.311  	469.274
555.931 	143.127
556.55 	831.201
557.17  	628.376
557.789 	727.286
558.408  	504.581
559.027    	620.919
559.646   	631.571
560.264 	626.245
560.883   	808.96
561.502  	418.919
562.12  	656.058
562.738 	1029.7
563.356 	215.563
563.974   	209.084
564.592    	303.966
565.21 	346.991
565.828 	586.808
566.445 	637.961
567.063  	519.547
567.68   	951.697
568.297   	368.48
568.914  	527.028
569.531 	834.377
570.148  	1054.96
570.765  	501.373
571.381   	363.109
571.998    	1145.36
572.614 	1071.8
573.23 	860.834
573.846 	339.466
574.462  	607.066
575.078   	832.26
575.694   	204.764
576.309 	813.197
576.925   	978.068
577.54  	754.886
578.155  	406.049
578.77 	708.165
579.385 	129.05
580                	428.568
580.615    	690.096
581.229 	839.67
581.844          	606
582.458  	1271.14
583.072 	571.874
583.686  	491.747
584.3  	771.859
584.914 	686.906
585.528  	239.308
586.142 	72.6714
586.755  	65.073
587.368 	50.9559
587.982  	798.364
588.595 	601.736
589.208  	843.904
589.82 	1210.39
590.433  	764.434
591.046  	907.35
591.658 	691.159
592.271  	804.722
592.883        	257.642
593.495 	152.868
594.107 	460.709
594.719          	936.921
595.33  	826.966
595.942  	636.896
596.553   	81.3527
597.165   	939.032
597.776  	209.084
598.387  	548.391
598.998      	887.271
599.609    	165.851
600.22  	288.892
600.83  	816.375
601.441  	545.187
602.051  	-57.8885
602.661     	637.961
603.271 	502.442
603.881   	993.881
604.491   	345.916
605.101     	859.776
605.71   	477.837
606.32   	997.043
606.929 	1032.86
607.538     	417.847
608.147  	306.118
608.756  	667.762
609.365    	854.486
609.973 	807.9
610.582 	483.188
611.19 	202.603
611.799 	627.311
612.407    	612.395
613.015  	738.965
613.623  	594.273
614.23 	696.474
614.838  	686.906
615.446   	737.904
616.053 	152.868
616.66       	848.137
617.267 	484.258
617.874   	721.975
618.481  	889.385
619.088  	551.594
619.694     	506.719
620.301 	398.539
620.907 	348.066
621.513  	457.496
622.119   	787.764
622.725   	71.586
623.331  	665.635
623.937 	794.124
624.542  	543.051
625.148 	481.047
625.753  	236.071
626.358 	987.557
626.963  	479.977
627.568   	808.96
628.173     	936.921
628.777  	1306.71
629.382  	300.736
629.986      	374.924
630.591   	1238.68
631.195 	391.027
631.799   	626.245
632.402  	645.414
633.006   	924.251
633.61  	460.709
634.213   	608.132
634.816       	725.162
635.42  	1108.59
636.023 	635.831
636.625    	565.471
637.228   	528.096
637.831  	394.247
638.433  	807.9
639.036  	897.841
639.638  	681.59
640.24  	1269.05
640.842 	1236.59
641.444  	492.816
642.046   	471.415
642.647   	868.238
643.249  	1037.07
643.85 	189.638
644.451 	434.999
645.052  	620.919
645.653 	413.557
646.254  	382.44
646.854  	475.697
647.455 	1430.97
648.055  	865.065
648.656   	483.188
649.256   	592.141
649.856 	354.514
650.455   	805.781
651.055  	754.886
651.655   	570.807
652.254 	707.102
652.853   	1283.7
653.452   	406.049
654.051  	512.065
654.65  	723.038
655.249     	778.222
655.848  	274.887
656.446   	773.98
657.044 	84.6075
657.643      	831.201
658.241  	885.157
658.839  	610.263
659.436   	459.638
660.034   	772.92
660.631 	646.478
661.229   	1010.74
661.826  	1098.08
662.423   	693.285
663.02    	923.195
663.617  	906.294
664.214  	410.34
664.81    	765.495
665.406   	-39.3531
666.003 	745.334
666.599   	575.075
667.195    	263.032
667.791 	220.962
668.386   	738.965
668.982  	1087.57
669.577 	391.027
670.173  	713.477
670.768 	473.556
671.363  	393.174
671.958   	1568.39
672.552   	391.027
673.147  	939.032
673.742  	48.7834
674.336        	674.145
674.93 	456.425
675.524   	253.329
676.118  	143.127
676.712  	407.122
677.305   	485.328
677.899    	294.276
678.492  	192.88
679.086 	1207.25
679.679  	306.118
680.271      	433.927
680.864     	443.571
681.457  	16.1744
682.049  	397.466
682.642 	787.764
683.234  	1062.33
683.826 	21.612
684.418 	631.571
685.01 	576.142
685.602 	971.74
686.193  	548.391
686.784   	491.747
687.376  	-61.1609
687.967  	313.652
688.558 	879.871
689.148        	498.164
689.739  	441.428
690.33  	308.271
690.92  	837.553
691.51    	135.548
692.1 	844.962
692.69  	1087.57
693.28  	372.776
693.87   	779.283
694.459  	292.122
695.049 	509.927
695.638 	442.5
696.227    	468.204
696.816  	757.008
697.405  	1226.11
697.994  	677.336
698.582 	718.789
699.17    	288.892
699.759 	69.4152
700.347  	612.395
700.935 	653.929
701.523  	735.78
702.11  	954.862
702.698    	265.188
703.285       	488.537
703.872 	442.5
704.459    	122.551
705.046    	200.443
705.633  	381.366
706.22  	879.871
706.806   	1050.75
707.393  	872.469
707.979    	202.603
708.565  	521.685
709.151  	721.975
709.737 	497.095
710.322  	343.766
710.908 	201.523
711.493 	266.266
712.078  	1187.33
712.663  	531.301
713.248  	667.762
713.833 	301.813
714.418 	1439.31
715.002 	124.718
715.587 	440.357
716.171  	1213.54
716.755 	79.1826
717.339 	389.954
717.922 	28.1357
718.506 	565.471
719.089  	951.697
719.673 	-36.0836
720.256  	493.886
720.839 	972.795
721.422 	903.124
722.005  	593.207
722.587  	267.344
723.169 	569.74
723.752   	840.729
724.334  	444.643
724.916  	684.78
725.498  	962.247
726.079   	1298.34
726.661   	198.282
727.242  	249.016
727.823   	826.966
728.405 	975.959
728.985  	807.9
729.566  	669.89
730.147    	961.192
730.727  	1010.74
731.308  	409.267
731.888   	595.339
732.468   	570.807
733.048 	339.466
733.628   	658.186
734.207   	724.1
734.787 	490.677
735.366   	189.638
735.945 	21.612
736.524 	619.853
737.103 	867.181
737.682      	19.4371
738.26 	597.472
738.839   	251.173
739.417  	729.41
739.995 	258.72
740.573  	550.526
741.151   	829.083
741.728   	238.229
742.306  	438.214
742.883 	317.956
743.46  	836.494
744.037   	675.209
744.614     	634.766
745.191 	639.025
745.768      	469.274
746.344   	259.798
746.92  	1009.69
747.496 	532.37
748.072  	736.842
748.648   	522.753
749.224   	868.238
749.799 	197.202
750.375   	417.847
750.95   	562.269
751.525  	727.286
752.1  	417.847
752.675  	461.78
753.249 	445.714
753.824 	517.409
754.398  	395.32
754.972 	299.659
755.546 	635.831
756.12 	912.633
756.694  	470.345
757.267 	594.273
757.841 	591.074
758.414 	1345.38
758.987  	654.994
759.56   	666.698
760.133 	85.6923
760.705  	1081.26
761.278  	457.496
761.85  	613.46
762.422   	59.6442
762.994      	1214.59
763.566 	383.513
764.138     	488.537
764.709 	488.537
765.281   	762.313
765.852   	337.316
766.423     	459.638
766.994  	1074.95
767.564      	1036.02
768.135 	250.094
768.706    	606
769.276 	650.736
769.846   	678.399
770.416  	288.892
770.986  	645.414
771.555   	1053.91
772.125  	598.538
772.694  	249.016
773.263   	660.314
773.833    	1287.88
774.401     	494.956
774.97  	632.636
775.539  	220.962
776.107  	577.208
776.675    	762.313
777.243   	327.637
777.811  	660.314
778.379   	282.429
778.947    	821.671
779.514  	148.539
780.082    	547.323
780.649   	645.414
781.216  	280.275
781.783  	546.255
782.349  	785.644
782.916   	275.965
783.482 	1209.35
784.048    	408.194
784.614  	504.581
785.18 	637.961
785.746  	849.195
786.312     	117.134
786.877      	588.941
787.442  	264.11
788.007    	1123.3
788.572      	782.464
789.137 	611.329
789.702    	654.994
790.266    	389.954
790.83  	806.841
791.395       	555.865
791.958    	577.208
792.522  	404.976
793.086 	682.653
793.65  	630.506
794.213 	62.9016
794.776  	-7.76428
795.339 	540.915
795.902 	532.37
796.465   	1066.54
797.027 	826.966
797.59 	680.526
798.152  	323.335
798.714 	297.506
799.276 	520.616
799.837    	464.992
800.399  	447.857
800.96    	487.467
801.522 	1039.18
802.083   	548.391
802.644  	313.652
803.204  	575.075
803.765 	643.284
804.326 	412.485
804.886 	396.393
805.446  	1356.87
806.006      	861.892
806.566   	258.72
807.125 	68.3297
807.685 	1003.37
808.244 	1022.33
808.803    	758.069
809.362  	581.475
809.921  	184.233
810.48 	994.935
811.038  	545.187
811.596 	767.617
812.155  	75.9272
812.713 	814.257
813.271     	367.406
813.828 	476.767
814.386     	614.526
814.943   	1266.96
815.5   	485.328
816.057  	241.465
816.614  	506.719
817.171 	642.22
817.727 	668.826
818.284    	413.557
818.84  	1082.31
819.396    	1194.67
819.952 	441.428
820.508   	823.789
821.063  	864.008
821.618 	841.787
822.174  	657.122
822.729   	656.058
823.284  	561.202
823.838 	751.702
824.393 	799.423
824.947      	357.737
825.501    	839.67
826.056  	749.58
826.609 	185.314
827.163  	448.928
827.717  	683.717
828.27 	426.424
828.823  	579.342
829.376  	667.762
829.929  	79.1826
830.482  	611.329
831.035  	615.591
831.587 	239.308
832.139    	344.841
832.691 	245.78
833.243     	-89.5384
833.795 	90.0312
834.346   	851.312
834.898  	695.411
835.449   	348.066
836  	80.2677
836.551   	1016.01
837.102  	706.04
837.652  	687.97
838.203    	564.404
838.753  	1295.21
839.303  	842.846
839.853   	371.702
840.402  	127.967
840.952  	44.4378
841.501 	297.506
842.051 	402.831
842.6      	799.423
843.149  	1044.44
843.697 	567.605
844.246  	514.203
844.794  	598.538
845.342    	870.354
845.89 	704.977
846.438 	402.831
846.986    	393.174
847.533 	832.26
848.081  	-13.2079
848.628     	687.97
849.175  	281.352
849.722     	368.48
850.268  	1412.2
850.815 	313.652
851.361  	506.719
851.907  	173.422
852.453   	1024.44
852.999  	502.442
853.545  	460.709
854.09 	816.375
854.636  	1017.06
855.181     	517.409
855.726  	685.843
856.27  	839.67
856.815  	727.286
857.359  	28.1357
857.904    	675.209
858.448  	381.366
858.992  	874.584
859.536  	695.411
860.079     	489.607
860.623    	618.788
861.166   	598.538
861.709  	644.349
862.252  	424.28
862.795  	431.784
863.337  	691.159
863.879    	707.102
864.422   	524.891
864.964   	354.514
865.505  	1067.59
866.047  	481.047
866.589  	611.329
867.13  	268.422
867.671  	185.314
868.212  	632.636
868.753  	453.212
869.294   	694.348
869.834   	549.459
870.375    	537.711
870.915    	630.506
871.455    	907.35
871.994  	550.526
872.534   	293.199
873.073  	577.208
873.613   	188.557
874.152   	302.889
874.691  	418.919
875.229  	379.219
875.768  	701.789
876.306  	676.272
876.844   	524.891
877.382  	314.728
877.92  	786.704
878.458     	353.439
878.995  	696.474
879.533  	873.526
880.07  	829.083
880.607  	927.418
881.144   	623.05
881.68   	434.999
882.217  	668.826
882.753   	755.947
883.289   	399.612
883.825     	710.29
884.361    	537.711
884.896      	161.524
885.432   	422.136
885.967   	358.812
886.502  	561.202
887.037  	859.776
887.572  	103.044
888.106   	755.947
888.641  	529.165
889.175  	473.556
889.709  	472.486
890.242   	600.67
890.776  	928.474
891.309  	411.412
891.843     	452.141
892.376  	452.141
892.909    	848.137
893.442  	551.594
893.974  	448.928
894.506    	146.375
895.039    	401.758
895.571   	97.6227
896.102  	467.133
896.634  	525.959
897.166  	625.18
897.697  	500.303
898.228    	367.406
898.759  	381.366
899.29  	998.097
899.82        	972.795
900.351  	725.162
900.881  	773.98
901.411   	927.418
901.941  	1048.65
902.47   	829.083
903                	501.373
903.529  	145.292
904.058  	254.408
904.588  	430.712
905.116     	600.67
905.645   	591.074
906.173    	412.485
906.702  	475.697
907.23  	534.506
907.757  	784.584
908.285       	641.155
908.813   	328.713
909.34  	537.711
909.867        	928.474
910.394  	907.35
910.921  	851.312
911.448  	887.271
911.974  	140.962
912.5   	595.339
913.026     	496.025
913.552    	249.016
914.078   	302.889
914.603  	-76.4372
915.129  	606
915.654  	548.391
916.179   	1017.06
916.704  	584.675
917.228   	195.041
917.753   	535.575
918.277  	311.5
918.801   	1129.61
919.325   	590.008
919.849     	479.977
920.372     	561.202
920.896     	630.506
921.419  	857.66
921.942  	621.984
922.464    	725.162
922.987  	875.641
923.509    	513.134
924.032  	690.096
924.554  	315.804
925.075   	593.207
925.597    	537.711
926.119    	860.834
926.64   	522.753
927.161  	412.485
927.682  	-264.874
928.203  	672.018
928.723  	33.5708
929.244    	1080.21
929.764   	359.886
930.284   	155.033
930.804     	604.934
931.323  	1286.84
931.843     	712.415
932.362   	521.685
932.881   	522.753
933.4  	185.314
933.919   	775.041
934.437   	403.904
934.956    	252.251
935.474  	510.996
935.992  	527.028
936.51   	438.214
937.027   	1174.74
937.545  	661.379
938.062   	593.207
938.579  	628.376
939.096      	1099.14
939.612     	929.53
940.129  	588.941
940.645    	880.928
941.161     	366.332
941.677  	724.1
942.193  	296.43
942.708  	596.406
943.224     	132.3
943.739  	896.784
944.254  	846.021
944.769     	629.441
945.283      	1172.64
945.798   	367.406
946.312   	676.272
946.826  	408.194
947.34  	384.587
947.853  	430.712
948.367  	564.404
948.88   	402.831
949.393  	881.985
949.906  	461.78
950.419  	281.352
950.931  	691.159
951.444   	929.53
951.956   	582.542
952.468     	205.844
952.979     	359.886
953.491  	180.99
954.002    	413.557
954.514      	30.3099
955.025   	417.847
955.536  	337.316
956.046   	1046.54
956.557  	608.132
957.067  	336.241
957.577  	632.636
958.087   	200.443
958.596   	34.6577
959.106  	887.271
959.615  	664.571
960.124   	887.271
960.633  	98.707
961.142   	130.134
961.65      	724.1
962.159    	904.181
962.667  	-103.739
963.175     	517.409
963.683     	-49.1644
964.19   	260.876
964.698   	84.6075
965.205  	714.54
965.712   	616.657
966.219   	629.441
966.725    	430.712
967.232  	550.526
967.738    	1228.21
968.244  	241.465
968.75  	210.164
969.255  	563.337
969.761     	640.09
970.266  	-101.554
970.771  	481.047
971.276    	341.616
971.781  	401.758
972.285  	862.95
972.789  	312.576
973.293    	565.471
973.797    	456.425
974.301  	636.896
974.805  	751.702
975.308  	484.258
975.811    	260.876
976.314    	883.043
976.817  	520.616
977.319     	819.553
977.822  	109.548
978.324    	651.8
978.826  	586.808
979.328  	378.145
979.829     	417.847
980.33  	152.868
980.832  	0.943208
981.333  	913.689
981.833    	-170.478
982.334      	716.664
982.834    	-31.7248
983.335   	401.758
983.835   	400.685
984.334    	729.41
984.834  	170.178
985.333    	101.96
985.833   	32.4839
986.332   	1138.01
986.831  	564.404
987.329  	572.941
987.828    	129.05
988.326   	795.184
988.824   	709.227
989.322  	869.296
989.819  	582.542
990.317  	1386.11
990.814   	436.071
991.311   	683.717
991.808    	135.548
992.305  	484.258
992.801    	694.348
993.298   	843.904
993.794   	309.347
994.29    	695.411
994.785       	706.04
995.281  	409.267
995.776  	392.1
996.271    	651.8
996.766   	250.094
997.261  	265.188
997.755   	584.675
998.249  	628.376
998.744  	382.44
999.237  	793.064
999.731  	583.609
1000.22     	711.352
1000.72 	648.607
1001.21       	239.308
1001.7  	352.365
1002.2 	805.781
1002.69 	523.822
1003.18  	312.576
1003.67 	754.886
1004.17 	708.165
1004.66 	458.567
1005.15 	509.927
1005.64  	1246.02
1006.13 	906.294
1006.62 	356.663
1007.11  	416.774
1007.6 	380.293
1008.09 	515.272
1008.58   	497.095
1009.07 	84.6075
1009.56 	-7.76428
1010.05 	836.494
1010.54 	935.865
1011.03  	580.409
1011.52 	325.486
1012.01  	833.318
1012.5    	696.474
1012.99    	729.41
1013.47  	687.97
1013.96 	967.521
1014.45  	2.03144
1014.94    	341.616
1015.42 	771.859
1015.91 	245.78
1016.4  	565.471
1016.88 	337.316
1017.37  	155.033
1017.86  	965.412
1018.34 	415.702
1018.83 	206.924
1019.31  	-190.206
1019.8 	143.127
1020.29  	388.881
1020.77    	384.587
1021.26 	381.366
1021.74 	646.478
1022.22  	459.638
1022.71 	515.272
1023.19  	432.855
1023.68  	719.851
1024.16 	593.207
1024.64 	917.914
1025.13  	317.956
1025.61 	703.914
1026.09  	510.996
1026.58    	351.29
1027.06    	838.612
1027.54  	815.316
1028.02  	419.991
1028.5 	162.606
1028.99  	776.101
1029.47 	1276.37
1029.95 	301.813
1030.43 	337.316
1030.91  	502.442
1031.39  	34.6577
1031.87 	426.424
1032.35  	505.65
1032.83  	336.241
1033.31   	997.043
1033.79   	288.892
1034.27 	381.366
1034.75     	305.042
1035.23 	636.896
1035.71   	130.134
1036.18   	427.496
1036.66 	273.81
1037.14 	718.789
1037.62  	430.712
1038.1  	472.486
1038.57  	1250.2
1039.05      	1237.64
1039.53   	364.184
1040  	163.688
1040.48  	642.22
1040.96 	1376.72
1041.43  	434.999
1041.91  	532.37
1042.39    	1067.59
1042.86     	744.273
1043.34  	640.09
1043.81 	187.476
1044.29  	716.664
1044.76 	4.20778
1045.24  	270.577
1045.55 	1198.86