File: JinData/Spectra_output_0_1737048694.txt
Wavelength [nm]    	Intensity [counts]
344.912	-1705.47
345.565 	-1731.51
346.219	435.713
346.872 	357.379
347.526   	562.981
348.179   	768.324
348.832  	649.317
349.485	593.918
350.138  	811.785
350.791   	502.086
351.444	533.082
352.097	529.877
352.75 	512.778
353.402 	186.035
354.055        	700.372
354.707 	861.539
355.359 	628.021
356.012	1169.15
356.664   	928.122
357.316	589.652
357.968	932.346
358.62	1127.15
359.272	330.505
359.923 	913.337
360.575	803.309
361.226  	731.179
361.878	841.434
362.529 	592.852
363.181	407.837
363.832	343.408
364.483  	1105.09
365.134     	701.435
365.785	647.188
366.436	772.566
367.086 	1327.27
367.737 	931.29
368.387	1051.46
369.038	389.596
369.688	1494.18
370.339	672.727
370.989 	1183.83
371.639	437.857
372.289   	482.831
372.939   	705.685
373.589 	752.41
374.238       	287.456
374.888   	954.51
375.537  	469.988
376.187 	1054.61
376.836  	599.249
377.486   	647.188
378.135      	752.41
378.784 	808.607
379.433   	553.374
380.082   	1034.61
380.731  	573.652
381.379 	747.103
382.028  	1005.12
382.676	1336.68
383.325   	575.786
383.973	676.981
384.622	854.134
385.27 	1066.19
385.918	757.715
386.566  	897.488
387.214 	753.471
387.861	921.787
388.509	781.05
389.157 	591.785
389.804  	1016.71
390.452	527.74
391.099 	798.01
391.746	469.988
392.393	188.197
393.04	394.962
393.687	685.489
394.334	540.559
394.981  	988.259
395.628 	805.428
396.274 	399.254
396.921 	195.761
397.567 	494.599
398.214  	689.742
398.86	619.498
399.506 	424.995
400.152	256.205
400.798  	1008.28
401.444 	840.376
402.089	645.059
402.735	399.254
403.38 	1245.67
404.026    	946.068
404.671 	1029.35
405.316 	659.96
405.962 	1155.5
406.607	879.518
407.252	989.314
407.896      	241.106
408.541   	1215.29
409.186  	734.365
409.83	476.41
410.475  	111.354
411.119 	73.395
411.764 	844.61
412.408	127.606
413.052  	794.831
413.696 	552.306
414.34 	287.456
414.984 	564.048
415.627 	478.551
416.271  	544.831
416.914 	570.451
417.558	664.216
418.201	750.287
418.844 	674.854
419.487	1059.87
420.13 	441.071
420.773	364.9
421.416  	580.053
422.059	608.842
422.701 	535.219
423.344   	178.468
423.986	533.082
424.629	574.719
425.271    	264.829
425.913	1170.2
426.555 	622.695
427.197	685.489
427.839     	533.082
428.481	908.055
429.122 	674.854
429.764	527.74
430.405 	758.776
431.047	229.237
431.688   	874.231
432.329	356.305
432.97 	-21.1939
433.611    	67.9679
434.252	606.711
434.892 	576.853
435.533 	824.495
436.174	1298
436.814	1248.81
437.454	82.0761
438.095 	452.855
438.735	630.151
439.375 	895.375
440.015 	636.541
440.654  	1052.51
441.294 	977.716
441.934	1050.4
442.573	789.531
443.213	417.489
443.852 	578.986
444.491     	731.179
445.13 	655.703
445.769	1039.88
446.408      	606.711
447.047  	460.352
447.686 	502.086
448.324	404.619
448.963	196.842
449.601  	971.389
450.239	597.117
450.878	626.956
451.516  	526.672
452.154	1200.61
452.792	1000.91
453.429 	668.472
454.067  	1591.95
454.705    	523.466
455.342   	902.772
455.979 	574.719
456.617	806.488
457.254	802.249
457.891   	883.747
458.528	227.078
459.165	708.873
459.801	1128.21
460.438    	659.96
461.075 	649.317
461.711        	186.035
462.347	513.847
462.983 	375.64
463.62 	170.899
464.256 	697.183
464.891	690.805
465.527	377.787
466.163 	490.32
466.798	453.927
467.434  	282.07
468.069     	597.117
468.705    	512.778
469.34	758.776
469.975 	676.981
470.61  	568.317
471.245 	940.791
471.879	414.272
472.514   	779.99
473.148        	199.003
473.783  	574.719
474.417 	233.553
475.051	1289.63
475.685	471.058
476.319	303.607
476.953 	1174.39
477.587 	587.52
478.221	539.491
478.854 	17.9872
479.488 	632.281
480.121       	1071.45
480.754 	-137.998
481.387   	812.844
482.02 	776.808
482.653 	1285.44
483.286     	318.673
483.919	784.231
484.551 	188.197
485.184 	555.509
485.816  	562.981
486.449 	859.424
487.081  	1067.24
487.713 	549.103
488.345 	852.017
488.976	800.13
489.608	768.324
490.24 	616.302
490.871 	428.211
491.503   	701.435
492.134	219.522
492.765    	954.51
493.396 	737.55
494.027   	447.5
494.658   	1235.19
495.289  	1250.9
495.919  	228.158
496.55     	85.3308
497.18	479.621
497.81 	908.055
498.441   	462.494
499.071 	619.498
499.701    	887.976
500.331 	707.811
500.96 	526.672
501.59 	605.645
502.219	630.151
502.849 	1066.19
503.478 	469.988
504.107 	414.272
504.736      	820.259
505.365 	435.713
505.994      	913.337
506.623 	350.932
507.251    	914.393
507.88	283.147
508.508 	783.17
509.137 	878.461
509.765 	283.147
510.393 	246.499
511.021 	473.199
511.649   	529.877
512.276     	802.249
512.904 	355.23
513.531   	635.476
514.159 	782.11
514.786     	364.9
515.413 	359.528
516.04 	569.384
516.667   	842.493
517.294  	773.627
517.921  	838.259
518.547    	935.513
519.174      	809.666
519.8  	220.602
520.426 	713.123
521.053 	715.248
521.679  	608.842
522.305 	535.219
522.93  	1389.94
523.556   	291.764
524.182  	365.974
524.807 	126.523
525.432  	740.735
526.057  	575.786
526.683     	417.489
527.308     	998.8
527.932 	315.445
528.557 	653.575
529.182   	508.501
529.806   	214.124
530.431  	322.976
531.055  	681.235
531.679 	34.2955
532.303  	1176.49
532.927    	584.32
533.551 	498.877
534.175     	522.397
534.798 	794.831
535.422         	287.456
536.045 	354.156
536.668    	447.5
537.292  	645.059
537.915 	931.29
538.538 	633.346
539.16  	666.344
539.783   	678.045
540.406   	1049.35
541.028  	358.454
541.65  	940.791
542.272     	416.417
542.895       	1066.19
543.516  	671.663
544.138  	783.17
544.76   	955.566
545.382 	548.035
546.003 	223.84
546.625    	577.92
547.246  	692.931
547.867 	686.552
548.488 	681.235
549.109  	347.708
549.73 	85.3308
550.35  	562.981
550.971      	597.117
551.591  	591.785
552.211    	878.461
552.832  	656.767
553.452 	722.684
554.072  	538.423
554.691 	1239.38
555.311  	426.067
555.931 	131.939
556.55 	645.059
557.17  	753.471
557.789 	778.929
558.408  	517.053
559.027    	665.28
559.646   	467.847
560.264 	733.303
560.883   	926.011
561.502  	599.249
562.12  	717.373
562.738 	1185.93
563.356 	250.813
563.974   	122.19
564.592    	316.521
565.21 	223.84
565.828 	584.32
566.445 	542.695
567.063  	444.286
567.68   	948.179
568.297   	354.156
568.914  	417.489
569.531 	912.281
570.148  	1084.07
570.765  	447.5
571.381   	371.344
571.998    	1159.7
572.614 	1000.91
573.23 	721.621
573.846 	111.354
574.462  	693.994
575.078   	789.531
575.694   	88.5851
576.309 	814.963
576.925   	942.902
577.54  	798.01
578.155  	430.355
578.77 	602.447
579.385 	240.027
580                	370.27
580.615    	496.738
581.229 	700.372
581.844          	502.086
582.458  	1260.33
583.072 	416.417
583.686  	394.962
584.3  	680.172
584.914 	763.02
585.528  	194.681
586.142 	190.358
586.755  	92.9236
587.368 	108.103
587.982  	784.231
588.595 	459.281
589.208  	719.497
589.82 	1284.4
590.433  	748.165
591.046  	813.904
591.658 	654.639
592.271  	736.488
592.883        	149.261
593.495 	434.642
594.107 	374.566
594.719          	916.506
595.33  	717.373
595.942  	724.808
596.553   	160.082
597.165   	744.981
597.776  	338.033
598.387  	350.932
598.998      	971.389
599.609    	187.116
600.22  	188.197
600.83  	849.901
601.441  	432.498
602.051  	-39.7164
602.661     	700.372
603.271 	444.286
603.881   	787.411
604.491   	381.008
605.101     	726.932
605.71   	508.501
606.32   	1201.66
606.929 	1093.53
607.538     	514.916
608.147  	342.333
608.756  	620.564
609.365    	806.488
609.973 	747.103
610.582 	491.39
611.19 	259.439
611.799 	549.103
612.407    	682.299
613.015  	733.303
613.623  	649.317
614.23 	686.552
614.838  	585.386
615.446   	612.039
616.053 	45.1622
616.66       	805.428
617.267 	560.846
617.874   	750.287
618.481  	828.731
619.088  	663.152
619.694     	497.808
620.301 	603.513
620.907 	322.976
621.513  	341.258
622.119   	708.873
622.725   	36.4692
623.331  	693.994
623.937 	732.241
624.542  	573.652
625.148 	415.345
625.753  	192.519
626.358 	990.368
626.963  	379.935
627.568   	769.385
628.173     	830.848
628.777  	1283.35
629.382  	244.342
629.986      	544.831
630.591   	1149.21
631.195 	424.995
631.799   	667.408
632.402  	714.186
633.006   	1028.3
633.61  	442.143
634.213   	474.27
634.816       	761.959
635.42  	998.8
636.023 	739.673
636.625    	600.315
637.228   	568.317
637.831  	385.303
638.433  	787.411
639.036  	810.726
639.638  	592.852
640.24  	1265.56
640.842 	1178.59
641.444  	296.071
642.046   	318.673
642.647   	803.309
643.249  	1047.25
643.85 	299.301
644.451 	442.143
645.052  	441.071
645.653 	499.947
646.254  	187.116
646.854  	572.585
647.455 	1328.32
648.055  	837.2
648.656   	358.454
649.256   	541.628
649.856 	350.932
650.455   	756.654
651.055  	731.179
651.655   	477.48
652.254 	674.854
652.853   	1226.81
653.452   	620.564
654.051  	504.224
654.65  	708.873
655.249     	817.081
655.848  	165.491
656.446   	680.172
657.044 	-77.8925
657.643      	899.602
658.241  	843.551
658.839  	534.15
659.436   	416.417
660.034   	781.05
660.631 	575.786
661.229   	873.174
661.826  	1216.33
662.423   	870.001
663.02    	771.506
663.617  	841.434
664.214  	481.761
664.81    	576.853
665.406   	-46.2569
666.003 	710.998
666.599   	566.183
667.195    	46.2486
667.791 	259.439
668.386   	729.056
668.982  	1159.7
669.577 	251.892
670.173  	541.628
670.768 	467.847
671.363  	587.52
671.958   	1432.71
672.552   	520.26
673.147  	836.142
673.742  	85.3308
674.336        	753.471
674.93 	447.5
675.524   	293.917
676.118  	306.836
676.712  	417.489
677.305   	559.779
677.899    	289.61
678.492  	159
679.086 	1128.21
679.679  	272.373
680.271      	334.807
680.864     	398.181
681.457  	-26.6403
682.049  	432.498
682.642 	842.493
683.234  	1038.83
683.826 	14.7243
684.418 	483.901
685.01 	657.832
685.602 	1100.89
686.193  	422.851
686.784   	438.928
687.376  	-69.1615
687.967  	294.994
688.558 	905.942
689.148        	501.016
689.739  	419.634
690.33  	272.373
690.92  	896.432
691.51    	141.684
692.1 	859.424
692.69  	1068.29
693.28  	528.809
693.87   	657.832
694.459  	292.84
695.049 	560.846
695.638 	311.141
696.227    	597.117
696.816  	710.998
697.405  	1024.08
697.994  	528.809
698.582 	755.593
699.17    	216.283
699.759 	74.4803
700.347  	670.599
700.935 	543.763
701.523  	739.673
702.11  	904.885
702.698    	446.428
703.285       	334.807
703.872 	393.889
704.459    	184.954
705.046    	112.438
705.633  	349.857
706.22  	973.498
706.806   	1025.14
707.393  	1031.46
707.979    	178.468
708.565  	587.52
709.151  	830.848
709.737 	348.782
710.322  	308.988
710.908 	127.606
711.493 	234.633
712.078  	1153.4
712.663  	551.238
713.248  	639.735
713.833 	161.164
714.418 	1418.11
715.002 	279.915
715.587 	373.492
716.171  	1059.87
716.755 	75.5656
717.339 	546.967
717.922 	102.683
718.506 	511.709
719.089  	858.366
719.673 	39.7294
720.256  	319.749
720.839 	871.059
721.422 	1014.6
722.005  	576.853
722.587  	178.468
723.169 	612.039
723.752   	818.141
724.334  	605.645
724.916  	626.956
725.498  	756.654
726.079   	1286.49
726.661   	376.714
727.242  	118.94
727.823   	896.432
728.405 	987.205
728.985  	861.539
729.566  	710.998
730.147    	975.607
730.727  	1008.28
731.308  	364.9
731.888   	535.219
732.468   	539.491
733.048 	401.4
733.628   	495.669
734.207   	717.373
734.787 	371.344
735.366   	26.6862
735.945 	48.4214
736.524 	667.408
737.103 	969.279
737.682      	50.5939
738.26 	614.171
738.839   	354.156
739.417  	859.424
739.995 	157.918
740.573  	510.639
741.151   	716.31
741.728   	254.048
742.306  	408.91
742.883 	338.033
743.46  	858.366
744.037   	503.155
744.614     	706.748
745.191 	558.711
745.768      	499.947
746.344   	334.807
746.92  	1115.6
747.496 	601.381
748.072  	685.489
748.648   	504.224
749.224   	896.432
749.799 	344.483
750.375   	343.408
750.95   	554.441
751.525  	727.994
752.1  	356.305
752.675  	428.211
753.249 	392.816
753.824 	458.21
754.398  	483.901
754.972 	435.713
755.546 	656.767
756.12 	969.279
756.694  	513.847
757.267 	738.612
757.841 	573.652
758.414 	1232.05
758.987  	702.497
759.56   	582.187
760.133 	-3.7729
760.705  	1033.56
761.278  	282.07
761.85  	606.711
762.422   	114.605
762.994      	1085.12
763.566 	456.069
764.138     	523.466
764.709 	512.778
765.281   	730.118
765.852   	394.962
766.423     	308.988
766.994  	960.841
767.564      	941.847
768.135 	224.92
768.706    	452.855
769.276 	571.518
769.846   	586.453
770.416  	248.656
770.986  	732.241
771.555   	1015.66
772.125  	584.32
772.694  	284.224
773.263   	512.778
773.833    	1200.61
774.401     	412.127
774.97  	664.216
775.539  	270.218
776.107  	548.035
776.675    	826.613
777.243   	307.912
777.811  	658.896
778.379   	376.714
778.947    	706.748
779.514  	97.2613
780.082    	471.058
780.649   	575.786
781.216  	215.204
781.783  	557.644
782.349  	838.259
782.916   	301.454
783.482 	1223.67
784.048    	402.473
784.614  	543.763
785.18 	518.122
785.746  	1033.56
786.312     	152.508
786.877      	662.088
787.442  	193.6
788.007    	1079.86
788.572      	620.564
789.137 	598.183
789.702    	695.057
790.266    	348.782
790.83  	681.235
791.395       	555.509
791.958    	658.896
792.522  	436.785
793.086 	570.451
793.65  	511.709
794.213 	-2.68447
794.776  	70.1389
795.339 	539.491
795.902 	308.988
796.465   	1134.51
797.027 	735.427
797.59 	709.936
798.152  	291.764
798.714 	228.158
799.276 	598.183
799.837    	556.576
800.399  	430.355
800.96    	285.302
801.522 	1086.17
802.083   	411.055
802.644  	481.761
803.204  	684.426
803.765 	551.238
804.326 	503.155
804.886 	402.473
805.446  	1359.66
806.006      	924.955
806.566   	287.456
807.125 	151.425
807.685 	998.8
808.244 	956.621
808.803    	765.142
809.362  	451.784
809.921  	254.048
810.48 	917.562
811.038  	361.677
811.596 	800.13
812.155  	-76.8009
812.713 	806.488
813.271     	436.785
813.828 	409.982
814.386     	628.021
814.943   	1329.36
815.5   	609.908
816.057  	171.98
816.614  	472.129
817.171 	737.55
817.727 	590.719
818.284    	348.782
818.84  	1065.14
819.396    	1214.24
819.952 	441.071
820.508   	802.249
821.063  	763.02
821.618 	980.879
822.174  	647.188
822.729   	647.188
823.284  	795.891
823.838 	568.317
824.393 	713.123
824.947      	297.147
825.501    	959.786
826.056  	747.103
826.609 	110.27
827.163  	362.751
827.717  	693.994
828.27 	423.923
828.823  	578.986
829.376  	704.623
829.929  	163.327
830.482  	536.287
831.035  	465.706
831.587 	113.522
832.139    	473.199
832.691 	484.971
833.243     	-12.482
833.795 	114.605
834.346   	945.013
834.898  	673.791
835.449   	241.106
836  	258.361
836.551   	985.097
837.102  	674.854
837.652  	732.241
838.203    	483.901
838.753  	1201.66
839.303  	886.919
839.853   	390.669
840.402  	138.436
840.952  	100.514
841.501 	490.32
842.051 	379.935
842.6      	662.088
843.149  	1296.95
843.697 	567.25
844.246  	523.466
844.794  	540.559
845.342    	995.638
845.89 	717.373
846.438 	607.776
846.986    	250.813
847.533 	848.843
848.081  	28.8605
848.628     	551.238
849.175  	219.522
849.722     	261.595
850.268  	1226.81
850.815 	255.127
851.361  	407.837
851.907  	105.935
852.453   	900.659
852.999  	483.901
853.545  	408.91
854.09 	827.672
854.636  	1038.83
855.181     	566.183
855.726  	653.575
856.27  	829.789
856.815  	731.179
857.359  	24.5117
857.904    	509.57
858.448  	369.196
858.992  	877.404
859.536  	569.384
860.079     	491.39
860.623    	610.974
861.166   	478.551
861.709  	601.381
862.252  	489.251
862.795  	364.9
863.337  	652.51
863.879    	645.059
864.422   	546.967
864.964   	211.964
865.505  	1137.66
866.047  	592.852
866.589  	663.152
867.13  	224.92
867.671  	156.836
868.212  	495.669
868.753  	241.106
869.294   	571.518
869.834   	630.151
870.375    	544.831
870.915    	584.32
871.455    	932.346
871.994  	471.058
872.534   	355.23
873.073  	560.846
873.613   	13.6366
874.152   	417.489
874.691  	348.782
875.229  	325.128
875.768  	756.654
876.306  	774.6875
876.844   	381.008
877.382  	392.816
877.92  	682.299
878.458     	296.071
878.995  	621.629
879.533  	830.848
880.07  	884.805
880.607  	854.134
881.144   	487.111
881.68   	573.652
882.217  	460.352
882.753   	701.435
883.289   	592.852
883.825     	599.249
884.361    	534.15
884.896      	188.197
885.432   	310.065
885.967   	307.912
886.502  	512.778
887.037  	903.829
887.572  	-136.904
888.106   	652.51
888.641  	573.652
889.175  	229.237
889.709  	484.971
890.242   	569.384
890.776  	891.147
891.309  	399.254
891.843     	374.566
892.376  	533.082
892.909    	733.303
893.442  	561.914
893.974  	534.15
894.506    	141.684
895.039    	294.994
895.571   	141.684
896.102  	396.035
896.634  	321.901
897.166  	601.381
897.697  	338.033
898.228    	445.357
898.759  	393.889
899.29  	879.518
899.82        	918.618
900.351  	657.832
900.881  	620.564
901.411   	955.566
901.941  	1028.3
902.47   	839.317
903                	498.877
903.529  	276.683
904.058  	258.361
904.588  	440
905.116     	491.39
905.645   	659.96
906.173    	265.907
906.702  	592.852
907.23  	527.74
907.757  	633.346
908.285       	733.303
908.813   	336.957
909.34  	461.423
909.867        	913.337
910.394  	876.346
910.921  	713.123
911.448  	837.2
911.974  	9.28528
912.5   	787.411
913.026     	670.599
913.552    	209.804
914.078   	245.421
914.603  	-147.847
915.129  	621.629
915.654  	437.857
916.179   	906.998
916.704  	407.837
917.228   	124.357
917.753   	560.846
918.277  	283.147
918.801   	1112.45
919.325   	515.984
919.849     	431.426
920.372     	554.441
920.896     	642.93
921.419  	772.566
921.942  	618.433
922.464    	558.711
922.987  	906.998
923.509    	457.139
924.032  	818.141
924.554  	346.633
925.075   	769.385
925.597    	605.645
926.119    	829.789
926.64   	659.96
927.161  	382.082
927.682  	-198.247
928.203  	707.811
928.723  	64.7112
929.244    	1192.22
929.764   	298.224
930.284   	169.817
930.804     	596.05
931.323  	1190.13
931.843     	642.93
932.362   	650.381
932.881   	348.782
933.4  	127.606
933.919   	726.932
934.437   	448.571
934.956    	364.9
935.474  	398.181
935.992  	399.254
936.51   	384.229
937.027   	1056.72
937.545  	741.796
938.062   	606.711
938.579  	471.058
939.096      	1109.29
939.612     	939.736
940.129  	671.663
940.645    	942.902
941.161     	346.633
941.677  	787.411
942.193  	99.4299
942.708  	565.115
943.224     	153.59
943.739  	757.715
944.254  	928.122
944.769     	645.059
945.283      	1145.01
945.798   	556.576
946.312   	715.248
946.826  	464.635
947.34  	316.521
947.853  	387.449
948.367  	541.628
948.88   	307.912
949.393  	952.4
949.906  	167.654
950.419  	257.283
950.931  	671.663
951.444   	813.904
951.956   	760.898
952.468     	82.0761
952.979     	250.813
953.491  	125.44
954.002    	382.082
954.514      	153.59
955.025   	474.27
955.536  	229.237
956.046   	876.346
956.557  	624.825
957.067  	399.254
957.577  	804.369
958.087   	187.116
958.596   	-41.8964
959.106  	792.711
959.615  	640.8
960.124   	849.901
960.633  	44.0757
961.142   	79.9061
961.65      	607.776
962.159    	685.489
962.667  	-204.829
963.175     	398.181
963.683     	-49.5277
964.19   	299.301
964.698   	-17.9266
965.205  	686.552
965.712   	537.355
966.219   	527.74
966.725    	447.5
967.232  	496.738
967.738    	1117.7
968.244  	200.083
968.75  	358.454
969.255  	676.981
969.761     	602.447
970.266  	-76.8009
970.771  	675.918
971.276    	292.84
971.781  	465.706
972.285  	1045.14
972.789  	393.889
973.293    	400.327
973.797    	328.354
974.301  	655.703
974.805  	585.386
975.308  	519.191
975.811    	182.792
976.314    	923.899
976.817  	645.059
977.319     	682.299
977.822  	70.1389
978.324    	730.118
978.826  	698.246
979.328  	361.677
979.829     	321.901
980.33  	0.580542
980.832  	-16.8376
981.333  	701.435
981.833    	66.8824
982.334      	588.586
982.834    	19.0747
983.335   	427.139
983.835   	441.071
984.334    	775.748
984.834  	10.3732
985.333    	66.8824
985.833   	-127.059
986.332   	1093.53
986.831  	636.541
987.329  	356.305
987.828    	237.869
988.326   	597.117
988.824   	662.088
989.322  	884.805
989.819  	452.855
990.317  	1306.36
990.814   	452.855
991.311   	606.711
991.808    	163.327
992.305  	566.183
992.801    	716.31
993.298   	834.024
993.794   	279.915
994.29    	679.108
994.785       	650.381
995.281  	443.214
995.776  	316.521
996.271    	543.763
996.766   	353.081
997.261  	236.79
997.755   	374.566
998.249  	345.558
998.744  	252.97
999.237  	826.613
999.731  	457.139
1000.22     	775.748
1000.72 	705.685
1001.21       	276.683
1001.7  	211.964
1002.2 	857.308
1002.69 	566.183
1003.18  	325.128
1003.67 	801.19
1004.17 	585.386
1004.66 	549.103
1005.15 	422.851
1005.64  	1205.85
1006.13 	951.345
1006.62 	436.785
1007.11  	327.279
1007.6 	258.361
1008.09 	490.32
1008.58   	461.423
1009.07 	76.6508
1009.56 	-242.157
1010.05 	794.831
1010.54 	832.966
1011.03  	566.183
1011.52 	319.749
1012.01  	736.488
1012.5    	771.506
1012.99    	800.13
1013.47  	776.808
1013.96 	1071.45
1014.45  	12.5488
1014.94    	283.147
1015.42 	649.317
1015.91 	207.644
1016.4  	493.53
1016.88 	266.985
1017.37  	40.8161
1017.86  	844.61
1018.34 	428.211
1018.83 	108.103
1019.31  	-167.557
1019.8 	247.578
1020.29  	373.492
1020.77    	287.456
1021.26 	313.293
1021.74 	684.426
1022.22  	480.691
1022.71 	418.562
1023.19  	390.669
1023.68  	633.346
1024.16 	506.363
1024.64 	997.746
1025.13  	293.917
1025.61 	597.117
1026.09  	592.852
1026.58    	249.735
1027.06    	876.346
1027.54  	784.231
1028.02  	469.988
1028.5 	141.684
1028.99  	682.299
1029.47 	1146.06
1029.95 	352.007
1030.43 	347.708
1030.91  	666.344
1031.39  	135.187
1031.87 	497.808
1032.35  	407.837
1032.83  	214.124
1033.31   	861.539
1033.79   	347.708
1034.27 	466.776
1034.75     	377.787
1035.23 	567.25
1035.71   	279.915
1036.18   	358.454
1036.66 	331.581
1037.14 	768.324
1037.62  	407.837
1038.1  	476.41
1038.57  	1076.71
1039.05      	1209
1039.53   	330.505
1040  	188.197
1040.48  	663.152
1040.96 	1268.7
1041.43  	537.355
1041.91  	587.52
1042.39    	1129.26
1042.86     	785.291
1043.34  	518.122
1043.81 	128.69
1044.29  	705.685
1044.76 	59.2823
1045.24  	322.976
1045.55 	1222.62