File: JinData/Spectra_output_0_1736790438.txt
Wavelength [nm]    	Intensity [counts]
344.912	-1816.94
345.565 	-1764.63
346.219	630.222
346.872 	432.57
347.526   	528.88
348.179   	864.783
348.832  	738.682
349.485	695.128
350.138  	741.867
350.791   	702.568
351.444	706.819
352.097	573.723
352.75 	526.743
353.402 	457.211
354.055        	780.06
354.707 	768.395
355.359 	784.301
356.012	1265.63
356.664   	1098.86
357.316	584.391
357.968	716.381
358.62	1098.86
359.272	492.531
359.923 	1004.14
360.575	717.443
361.226  	888.047
361.878	1048.37
362.529 	540.631
363.181	492.531
363.832	377.859
364.483  	1260.4
365.134     	725.941
365.785	656.838
366.436	954.581
367.086 	1314.8
367.737 	835.154
368.387	1010.46
369.038	634.482
369.688	1509.87
370.339	569.455
370.989 	1139.83
371.639	475.411
372.289   	718.506
372.939   	772.637
373.589 	756.725
374.238       	376.785
374.888   	1077.83
375.537  	457.211
376.187 	1029.42
376.836  	606.782
377.486   	651.517
378.135      	665.351
378.784 	870.072
379.433   	720.63
380.082   	1092.55
380.731  	603.584
381.379 	720.63
382.028  	1157.67
382.676	1252.02
383.325   	513.918
383.973	653.645
384.622	950.36
385.27 	1450.5
385.918	684.496
386.566  	828.801
387.214 	813.974
387.861	1106.21
388.509	737.621
389.157 	583.324
389.804  	1041
390.452	632.352
391.099 	808.677
391.746	449.713
392.393	272.445
393.04	472.2
393.687	775.819
394.334	466.848
394.981  	1195.44
395.628 	754.603
396.274 	576.924
396.921 	113.594
397.567 	718.506
398.214  	755.664
398.86	457.211
399.506 	436.857
400.152	403.618
400.798  	1132.48
401.444 	669.606
402.089	703.631
402.735	436.857
403.38 	1259.35
404.026    	965.131
404.671 	806.558
405.316 	699.38
405.962 	1088.34
406.607	817.152
407.252	863.726
407.896      	435.785
408.541   	1352.42
409.186  	794.902
409.83	670.67
410.475  	476.481
411.119 	304.755
411.764 	813.974
412.408	263.823
413.052  	1108.31
413.696 	719.568
414.34 	425.066
414.984 	684.496
415.627 	665.351
416.271  	602.518
416.914 	421.85
417.558	771.577
418.201	929.249
418.844 	804.439
419.487	1012.57
420.13 	506.434
420.773	492.531
421.416  	653.645
422.059	740.805
422.701 	494.67
423.344   	257.355
423.986	783.241
424.629	540.631
425.271    	265.979
425.913	1256.21
426.555 	762.03
427.197	535.29
427.839     	536.358
428.481	1139.83
429.122 	788.542
429.764	385.374
430.405 	795.962
431.047	333.803
431.688   	881.704
432.329	430.426
432.97 	6.09386
433.611    	152.58
434.252	656.838
434.892 	621.7
435.533 	1041
436.174	1301.2
436.814	1514.03
437.454	300.449
438.095 	620.635
438.735	858.436
439.375 	886.989
440.015 	605.716
440.654  	1016.78
441.294 	1265.63
441.934	1085.19
442.573	653.645
443.213	327.351
443.852 	643
444.491     	899.672
445.13 	560.917
445.769	1043.11
446.408      	716.381
447.047  	711.069
447.686 	408.981
448.324	384.301
448.963	370.342
449.601  	998.87
450.239	641.936
450.878	575.857
451.516  	735.497
452.154	1159.77
452.792	791.722
453.429 	722.754
454.067  	1594.1
454.705    	656.838
455.342   	906.012
455.979 	627.027
456.617	826.683
457.254	1020.99
457.891   	739.744
458.528	302.602
459.165	760.969
459.801	1149.28
460.438    	730.188
461.075 	564.119
461.711        	115.761
462.347	567.321
462.983 	329.502
463.62 	195.833
464.256 	766.273
464.891	693.002
465.527	401.472
466.163 	371.416
466.798	527.811
467.434  	366.046
468.069     	650.452
468.705    	472.2
469.34	901.786
469.975 	810.796
470.61  	457.211
471.245 	826.683
471.879	556.648
472.514   	861.61
473.148        	250.885
473.783  	568.388
474.417 	329.502
475.051	1332.57
475.685	449.713
476.319	318.745
476.953 	1033.63
477.587 	513.918
478.221	671.734
478.854 	137.425
479.488 	733.374
480.121       	1121.97
480.754 	-53.8168
481.387   	737.621
482.02 	1008.35
482.653 	1330.48
483.286     	270.29
483.919	645.13
484.551 	32.1941
485.184 	710.007
485.816  	432.57
486.449 	777.939
487.081  	1025.21
487.713 	781.121
488.345 	867.956
488.976	800.201
489.608	843.622
490.24 	789.602
490.871 	500.018
491.503   	789.602
492.134	275.678
492.765    	940.861
493.396 	717.443
494.027   	545.97
494.658   	1270.86
495.289  	1279.23
495.919  	383.227
496.55     	120.096
497.18	777.939
497.81 	1075.72
498.441   	519.262
499.071 	640.871
499.701    	878.532
500.331 	797.021
500.96 	464.706
501.59 	575.857
502.219	566.254
502.849 	1216.4
503.478 	420.778
504.107 	386.448
504.736      	929.249
505.365 	662.159
505.994      	1064.15
506.623 	482.902
507.251    	998.87
507.88	497.879
508.508 	666.415
509.137 	871.129
509.765 	552.377
510.393 	383.227
511.021 	485.042
511.649   	306.908
512.276     	730.188
512.904 	291.835
513.531   	636.612
514.159 	625.961
514.786     	513.918
515.413 	401.472
516.04 	502.157
516.667   	770.516
517.294  	1114.62
517.921  	982.004
518.547    	809.737
519.174      	856.32
519.8  	282.142
520.426 	754.603
521.053 	797.021
521.679  	573.723
522.305 	716.381
522.93  	1280.28
523.556   	465.777
524.182  	395.034
524.807 	279.987
525.432  	921.857
526.057  	481.832
526.683     	410.054
527.308     	960.911
527.932 	348.854
528.557 	647.259
529.182   	472.2
529.806   	143.921
530.431  	271.367
531.055  	548.106
531.679 	177.459
532.303  	1148.23
532.927    	557.715
533.551 	485.042
534.175     	395.034
534.798 	875.359
535.422         	392.887
536.045 	166.645
536.668    	481.832
537.292  	801.26
537.915 	1051.53
538.538 	467.918
539.16  	532.085
539.783   	774.758
540.406   	1065.21
541.028  	354.227
541.65  	934.528
542.272     	613.176
542.895       	1231.07
543.516  	738.682
544.138  	717.443
544.76   	947.194
545.382 	922.913
546.003 	295.066
546.625    	566.254
547.246  	806.558
547.867 	815.033
548.488 	486.112
549.109  	277.833
549.73 	201.235
550.35  	609.979
550.971      	479.692
551.591  	655.774
552.211    	948.249
552.832  	802.32
553.452 	568.388
554.072  	571.589
554.691 	1241.55
555.311  	528.88
555.931 	195.833
556.55 	623.831
557.17  	822.447
557.789 	853.146
558.408  	473.271
559.027    	650.452
559.646   	633.417
560.264 	722.754
560.883   	736.559
561.502  	487.182
562.12  	717.443
562.738 	1239.45
563.356 	159.072
563.974   	370.342
564.592    	296.143
565.21 	327.351
565.828 	533.153
566.445 	529.948
567.063  	595.055
567.68   	861.61
568.297   	443.286
568.914  	489.322
569.531 	1126.17
570.148  	1134.58
570.765  	403.618
571.381   	349.929
571.998    	1112.52
572.614 	1193.34
573.23 	682.37
573.846 	259.511
574.462  	822.447
575.078   	869.014
575.694   	133.094
576.309 	724.879
576.925   	1038.9
577.54  	730.188
578.155  	441.143
578.77 	503.226
579.385 	316.593
580                	466.848
580.615    	523.537
581.229 	729.126
581.844          	575.857
582.458  	1314.8
583.072 	399.326
583.686  	476.481
584.3  	829.86
584.914 	808.677
585.528  	190.43
586.142 	86.4879
586.755  	30.02
587.368 	169.889
587.982  	836.212
588.595 	450.785
589.208  	670.67
589.82 	1378.52
590.433  	643
591.046  	721.692
591.658 	789.602
592.271  	842.563
592.883        	226.071
593.495 	371.416
594.107 	564.119
594.719          	1188.1
595.33  	614.242
595.942  	681.306
596.553   	172.052
597.165   	1105.16
597.776  	256.277
598.387  	541.699
598.998      	1077.83
599.609    	256.277
600.22  	287.527
600.83  	805.499
601.441  	417.561
602.051  	125.512
602.661     	660.031
603.271 	478.622
603.881   	953.526
604.491   	466.848
605.101     	715.319
605.71   	497.879
606.32   	1132.48
606.929 	1146.13
607.538     	401.472
608.147  	413.271
608.756  	891.218
609.365    	875.359
609.973 	805.499
610.582 	349.929
611.19 	103.839
611.799 	612.11
612.407    	572.656
613.015  	595.055
613.623  	658.967
614.23 	994.654
614.838  	637.677
615.446   	690.876
616.053 	155.826
616.66       	825.624
617.267 	459.353
617.874   	727.003
618.481  	929.249
619.088  	641.936
619.694     	413.271
620.301 	464.706
620.907 	430.426
621.513  	459.353
622.119   	705.756
622.725   	49.58
623.331  	909.182
623.937 	951.415
624.542  	749.297
625.148 	458.282
625.753  	58.2688
626.358 	1039.95
626.963  	407.908
627.568   	732.312
628.173     	906.012
628.777  	1285.51
629.382  	272.445
629.986      	369.268
630.591   	1314.8
631.195 	525.674
631.799   	497.879
632.402  	576.924
633.006   	1066.26
633.61  	596.121
634.213   	489.322
634.816       	650.452
635.42  	1126.17
636.023 	927.137
636.625    	722.754
637.228   	520.331
637.831  	519.262
638.433  	876.417
639.036  	865.841
639.638  	613.176
640.24  	1217.45
640.842 	1174.46
641.444  	412.199
642.046   	417.561
642.647   	963.021
643.249  	1236.31
643.85 	288.605
644.451 	279.987
645.052  	544.903
645.653 	456.14
646.254  	384.301
646.854  	501.088
647.455 	1478.63
648.055  	770.516
648.656   	387.521
649.256   	544.903
649.856 	324.124
650.455   	988.33
651.055  	685.56
651.655   	486.112
652.254 	779
652.853   	1378.52
653.452   	460.423
654.051  	519.262
654.65  	812.915
655.249     	708.944
655.848  	271.367
656.446   	617.438
657.044 	50.6663
657.643      	990.438
658.241  	783.241
658.839  	536.358
659.436   	639.806
660.034   	908.125
660.631 	464.706
661.229   	820.329
661.826  	1106.21
662.423   	907.069
663.02    	684.496
663.617  	787.482
664.214  	419.705
664.81    	623.831
665.406   	-83.278
666.003 	687.686
666.599   	672.798
667.195    	153.662
667.791 	276.755
668.386   	729.126
668.982  	1074.67
669.577 	301.526
670.173  	544.903
670.768 	505.365
671.363  	704.694
671.958   	1467.17
672.552   	459.353
673.147  	809.737
673.742  	87.5727
674.336        	802.32
674.93 	553.445
675.524   	334.879
676.118  	345.63
676.712  	431.498
677.305   	592.923
677.899    	511.78
678.492  	101.671
679.086 	1055.74
679.679  	334.879
680.271      	348.854
680.864     	348.854
681.457  	114.678
682.049  	475.411
682.642 	858.436
683.234  	1107.26
683.826 	229.309
684.418 	695.128
685.01 	599.32
685.602 	995.708
686.193  	567.321
686.784   	453.998
687.376  	7.18188
687.967  	487.182
688.558 	1012.57
689.148        	558.782
689.739  	462.565
690.33  	382.154
690.92  	951.415
691.51    	145.004
692.1 	856.32
692.69  	1265.63
693.28  	632.352
693.87   	752.481
694.459  	273.523
695.049 	639.806
695.638 	551.309
696.227    	516.056
696.816  	533.153
697.405  	1063.1
697.994  	736.559
698.582 	570.522
699.17    	178.54
699.759 	139.591
700.347  	663.223
700.935 	560.917
701.523  	646.194
702.11  	955.636
702.698    	374.638
703.285       	396.107
703.872 	505.365
704.459    	30.02
705.046    	272.445
705.633  	425.066
706.22  	729.126
706.806   	1120.92
707.393  	1070.47
707.979    	299.372
708.565  	364.971
709.151  	706.819
709.737 	327.351
710.322  	320.896
710.908 	126.595
711.493 	381.08
712.078  	1205.92
712.663  	682.37
713.248  	702.568
713.833 	202.315
714.418 	1327.34
715.002 	209.876
715.587 	426.138
716.171  	1233.17
716.755 	237.941
717.339 	413.271
717.922 	147.168
718.506 	649.388
719.089  	939.806
719.673 	128.762
720.256  	291.835
720.839 	932.416
721.422 	983.058
722.005  	624.896
722.587  	219.594
723.169 	640.871
723.752   	935.583
724.334  	613.176
724.916  	487.182
725.498  	950.36
726.079   	1398.36
726.661   	164.481
727.242  	285.373
727.823   	1115.67
728.405 	1094.65
728.985  	747.174
729.566  	481.832
730.147    	1148.23
730.727  	900.729
731.308  	548.106
731.888   	545.97
732.468   	677.052
733.048 	423.994
733.628   	513.918
734.207   	657.902
734.787 	576.924
735.366   	143.921
735.945 	33.281
736.524 	643
737.103 	910.238
737.682      	189.349
738.26 	549.174
738.839   	315.517
739.417  	918.689
739.995 	231.467
740.573  	482.902
741.151   	772.637
741.728   	277.833
742.306  	475.411
742.883 	269.212
743.46  	864.783
744.037   	595.055
744.614     	767.334
745.191 	487.182
745.768      	531.017
746.344   	548.106
746.92  	1066.26
747.496 	622.766
748.072  	619.569
748.648   	602.518
749.224   	986.221
749.799 	268.134
750.375   	273.523
750.95   	663.223
751.525  	1046.26
752.1  	432.57
752.675  	435.785
753.249 	437.928
753.824 	597.188
754.398  	359.6
754.972 	404.69
755.546 	713.194
756.12 	1003.09
756.694  	417.561
757.267 	511.78
757.841 	589.724
758.414 	1382.7
758.987  	601.452
759.56   	696.191
760.133 	45.2346
760.705  	1054.68
761.278  	341.33
761.85  	576.924
762.422   	256.277
762.994      	1182.85
763.566 	299.372
764.138     	429.354
764.709 	536.358
765.281   	732.312
765.852   	372.49
766.423     	393.961
766.994  	1011.51
767.564      	977.786
768.135 	128.762
768.706    	558.782
769.276 	820.329
769.846   	756.725
770.416  	303.679
770.986  	636.612
771.555   	1062.05
772.125  	629.157
772.694  	359.6
773.263   	462.565
773.833    	1267.72
774.401     	570.522
774.97  	633.417
775.539  	371.416
776.107  	609.979
776.675    	825.624
777.243   	264.901
777.811  	689.813
778.379   	444.357
778.947    	825.624
779.514  	72.382
780.082    	553.445
780.649   	687.686
781.216  	421.85
781.783  	516.056
782.349  	675.989
782.916   	398.253
783.482 	1224.79
784.048    	370.342
784.614  	456.14
785.18 	497.879
785.746  	1046.26
786.312     	125.512
786.877      	497.879
787.442  	103.839
788.007    	1161.87
788.572      	518.193
789.137 	455.069
789.702    	735.497
790.266    	408.981
790.83  	712.132
791.395       	571.589
791.958    	616.373
792.522  	729.126
793.086 	491.461
793.65  	456.14
794.213 	247.65
794.776  	124.429
795.339 	485.042
795.902 	428.282
796.465   	1140.88
797.027 	919.745
797.59 	536.358
798.152  	311.213
798.714 	441.143
799.276 	619.569
799.837    	441.143
800.399  	389.668
800.96    	477.552
801.522 	1190.19
802.083   	588.657
802.644  	399.326
803.204  	715.319
803.765 	793.842
804.326 	366.046
804.886 	370.342
805.446  	1263.54
806.006      	916.576
806.566   	88.6574
807.125 	37.6284
807.685 	1069.41
808.244 	1017.83
808.803    	739.744
809.362  	524.606
809.921  	249.807
810.48 	1089.39
811.038  	357.451
811.596 	760.969
812.155  	74.5527
812.713 	991.492
813.271     	325.199
813.828 	494.67
814.386     	735.497
814.943   	1372.26
815.5   	527.811
816.057  	157.99
816.614  	553.445
817.171 	741.867
817.727 	556.648
818.284    	306.908
818.84  	1009.41
819.396    	1310.61
819.952 	436.857
820.508   	587.591
821.063  	845.739
821.618 	949.305
822.174  	584.391
822.729   	545.97
823.284  	558.782
823.838 	903.899
824.393 	694.065
824.947      	312.289
825.501    	1037.84
826.056  	750.358
826.609 	153.662
827.163  	326.275
827.717  	713.194
828.27 	421.85
828.823  	448.642
829.376  	599.32
829.929  	207.716
830.482  	619.569
831.035  	503.226
831.587 	53.9248
832.139    	376.785
832.691 	478.622
833.243     	43.0616
833.795 	272.445
834.346   	989.384
834.898  	687.686
835.449   	413.271
836  	102.755
836.551   	1058.89
837.102  	756.725
837.652  	677.052
838.203    	468.989
838.753  	1169.22
839.303  	974.623
839.853   	397.18
840.402  	127.679
840.952  	139.591
841.501 	385.374
842.051 	216.355
842.6      	705.756
843.149  	1155.57
843.697 	723.816
844.246  	493.601
844.794  	723.816
845.342    	983.058
845.89 	820.329
846.438 	413.271
846.986    	399.326
847.533 	927.137
848.081  	12.6213
848.628     	616.373
849.175  	370.342
849.722     	288.605
850.268  	1269.82
850.815 	353.153
851.361  	427.21
851.907  	140.673
852.453   	853.146
852.999  	370.342
853.545  	390.741
854.09 	933.472
854.636  	1073.62
855.181     	527.811
855.726  	771.577
856.27  	870.072
856.815  	856.32
857.359  	125.512
857.904    	563.052
858.448  	335.954
858.992  	864.783
859.536  	488.252
860.079     	430.426
860.623    	716.381
861.166   	604.65
861.709  	535.29
862.252  	380.006
862.795  	426.138
863.337  	671.734
863.879    	618.504
864.422   	474.341
864.964   	476.481
865.505  	1050.47
866.047  	602.518
866.589  	520.331
867.13  	330.577
867.671  	108.175
868.212  	533.153
868.753  	401.472
869.294   	690.876
869.834   	612.11
870.375    	450.785
870.915    	670.67
871.455    	883.818
871.994  	446.5
872.534   	243.335
873.073  	500.018
873.613   	270.29
874.152   	377.859
874.691  	329.502
875.229  	401.472
875.768  	754.603
876.306  	760.969
876.844   	493.601
877.382  	305.831
877.92  	919.745
878.458     	582.258
878.995  	658.967
879.533  	745.051
880.07  	751.419
880.607  	914.464
881.144   	563.052
881.68   	479.692
882.217  	739.744
882.753   	668.543
883.289   	553.445
883.825     	701.505
884.361    	535.29
884.896      	169.889
885.432   	253.042
885.967   	386.448
886.502  	447.571
887.037  	865.841
887.572  	-8.05451
888.106   	552.377
888.641  	631.287
889.175  	426.138
889.709  	488.252
890.242   	606.782
890.776  	840.446
891.309  	463.636
891.843     	353.153
892.376  	476.481
892.909    	864.783
893.442  	669.606
893.974  	464.706
894.506    	102.755
895.039    	432.57
895.571   	66.9547
896.102  	283.219
896.634  	310.136
897.166  	571.589
897.697  	415.416
898.228    	301.526
898.759  	343.48
899.29  	983.058
899.82        	941.917
900.351  	767.334
900.881  	478.622
901.411   	1057.84
901.941  	988.33
902.47   	694.065
903                	380.006
903.529  	217.435
904.058  	434.713
904.588  	496.81
905.116     	559.85
905.645   	675.989
906.173    	297.219
906.702  	407.908
907.23  	526.743
907.757  	687.686
908.285       	812.915
908.813   	318.745
909.34  	449.713
909.867        	937.695
910.394  	895.445
910.921  	774.758
911.448  	770.516
911.974  	221.753
912.5   	908.125
913.026     	535.29
913.552    	160.154
914.078   	369.268
914.603  	-120.425
915.129  	516.056
915.654  	382.154
916.179   	974.623
916.704  	675.989
917.228   	241.178
917.753   	405.763
918.277  	293.989
918.801   	1058.89
919.325   	518.193
919.849     	468.989
920.372     	606.782
920.896     	762.03
921.419  	689.813
921.942  	541.699
922.464    	759.908
922.987  	926.081
923.509    	400.399
924.032  	609.979
924.554  	412.199
925.075   	836.212
925.597    	481.832
926.119    	733.374
926.64   	770.516
927.161  	521.4
927.682  	-251.974
928.203  	650.452
928.723  	97.3336
929.244    	1066.26
929.764   	277.833
930.284   	297.219
930.804     	803.38
931.323  	1300.16
931.843     	656.838
932.362   	631.287
932.881   	603.584
933.4  	290.758
933.919   	602.518
934.437   	577.991
934.956    	314.441
935.474  	524.606
935.992  	339.179
936.51   	415.416
937.027   	1142.98
937.545  	755.664
938.062   	629.157
938.579  	491.461
939.096      	945.083
939.612     	1075.72
940.129  	586.524
940.645    	837.271
941.161     	351.004
941.677  	828.801
942.193  	256.277
942.708  	489.322
943.224     	311.213
943.739  	891.218
944.254  	863.726
944.769     	617.438
945.283      	1178.66
945.798   	478.622
946.312   	670.67
946.826  	389.668
947.34  	370.342
947.853  	538.494
948.367  	346.704
948.88   	339.179
949.393  	1000.98
949.906  	448.642
950.419  	436.857
950.931  	612.11
951.444   	833.036
951.956   	791.722
952.468     	140.673
952.979     	392.887
953.491  	162.318
954.002    	500.018
954.514      	10.4457
955.025   	354.227
955.536  	492.531
956.046   	1039.95
956.557  	573.723
957.067  	330.577
957.577  	881.704
958.087   	183.945
958.596   	47.4074
959.106  	795.962
959.615  	917.632
960.124   	917.632
960.633  	151.498
961.142   	145.004
961.65      	674.925
962.159    	862.668
962.667  	-41.8237
963.175     	430.426
963.683     	-41.8237
964.19   	352.078
964.698   	139.591
965.205  	604.65
965.712   	611.045
966.219   	648.323
966.725    	437.928
967.232  	411.126
967.738    	1234.22
968.244  	299.372
968.75  	407.908
969.255  	503.226
969.761     	669.606
970.266  	99.5022
970.771  	587.591
971.276    	404.69
971.781  	472.2
972.285  	1000.98
972.789  	382.154
973.293    	412.199
973.797    	437.928
974.301  	785.361
974.805  	715.319
975.308  	583.324
975.811    	201.235
976.314    	910.238
976.817  	582.258
977.319     	661.095
977.822  	190.43
978.324    	810.796
978.826  	780.06
979.328  	419.705
979.829     	372.49
980.33  	97.3336
980.832  	8.26986
981.333  	719.568
981.833    	71.2967
982.334      	669.606
982.834    	23.4969
983.335   	385.374
983.835   	521.4
984.334    	803.38
984.834  	169.889
985.333    	73.4674
985.833   	-141.208
986.332   	1068.36
986.831  	561.985
987.329  	531.017
987.828    	282.142
988.326   	685.56
988.824   	500.018
989.322  	852.088
989.819  	528.88
990.317  	1266.68
990.814   	420.778
991.311   	541.699
991.808    	216.355
992.305  	579.058
992.801    	688.749
993.298   	812.915
993.794   	244.414
994.29    	747.174
994.785       	816.093
995.281  	297.219
995.776  	415.416
996.271    	766.273
996.766   	325.199
997.261  	250.885
997.755   	697.254
998.249  	643
998.744  	316.593
999.237  	633.417
999.731  	612.11
1000.22     	873.244
1000.72 	604.65
1001.21       	272.445
1001.7  	378.933
1002.2 	843.622
1002.69 	524.606
1003.18  	276.755
1003.67 	794.902
1004.17 	670.67
1004.66 	387.521
1005.15 	420.778
1005.64  	1178.66
1006.13 	987.275
1006.62 	348.854
1007.11  	354.227
1007.6 	236.862
1008.09 	585.458
1008.58   	520.331
1009.07 	61.5264
1009.56 	-80.0029
1010.05 	967.24
1010.54 	751.419
1011.03  	497.879
1011.52 	360.674
1012.01  	912.351
1012.5    	468.989
1012.99    	570.522
1013.47  	674.925
1013.96 	1103.06
1014.45  	98.4179
1014.94    	262.745
1015.42 	815.033
1015.91 	281.065
1016.4  	621.7
1016.88 	271.367
1017.37  	212.036
1017.86  	955.636
1018.34 	457.211
1018.83 	189.349
1019.31  	-57.0886
1019.8 	253.042
1020.29  	333.803
1020.77    	312.289
1021.26 	417.561
1021.74 	771.577
1022.22  	430.426
1022.71 	496.81
1023.19  	418.633
1023.68  	935.583
1024.16 	563.052
1024.64 	825.624
1025.13  	137.425
1025.61 	655.774
1026.09  	497.879
1026.58    	300.449
1027.06    	972.514
1027.54  	933.472
1028.02  	436.857
1028.5 	70.2113
1028.99  	846.797
1029.47 	1211.16
1029.95 	514.987
1030.43 	219.594
1030.91  	584.391
1031.39  	45.2346
1031.87 	458.282
1032.35  	366.046
1032.83  	460.423
1033.31   	1037.84
1033.79   	421.85
1034.27 	465.777
1034.75     	518.193
1035.23 	772.637
1035.71   	282.142
1036.18   	377.859
1036.66 	416.489
1037.14 	785.361
1037.62  	234.704
1038.1  	317.669
1038.57  	1154.52
1039.05      	1402.53
1039.53   	215.275
1040  	231.467
1040.48  	782.181
1040.96 	1481.75
1041.43  	417.561
1041.91  	416.489
1042.39    	1332.57
1042.86     	877.474
1043.34  	498.949
1043.81 	139.591
1044.29  	852.088
1044.76 	134.177
1045.24  	229.309
1045.55 	1292.84