File: JinData/Spectra_output_0_1733519723.txt
Wavelength [nm]    	Intensity [counts]
344.912	-1524.54
345.565 	-1553.82
346.219	482.617
346.872 	221.465
347.526   	656.554
348.179   	651.233
348.832  	577.706
349.485	587.306
350.138  	691.655
350.791   	452.641
351.444	392.601
352.097	496.524
352.75 	553.16
353.402 	353.941
354.055        	653.361
354.707 	806.276
355.359 	912.069
356.012	1137.45
356.664   	693.781
357.316	440.857
357.968	928.967
358.62	1050.19
359.272	262.457
359.923 	828.519
360.575	778.717
361.226  	649.104
361.878	753.259
362.529 	586.24
363.181	465.491
363.832	355.015
364.483  	993.319
365.134     	852.864
365.785	668.259
366.436	809.454
367.086 	1076.5
367.737 	932.135
368.387	982.777
369.038	584.106
369.688	1334.38
370.339	500.802
370.989 	1262.21
371.639	262.457
372.289   	349.642
372.939   	678.896
373.589 	751.136
374.238       	268.925
374.888   	765.99
375.537  	402.258
376.187 	1234.98
376.836  	435.499
377.486   	436.571
378.135      	596.903
378.784 	740.522
379.433   	435.499
380.082   	995.427
380.731  	545.686
381.379 	521.115
382.028  	1029.14
382.676	1145.85
383.325   	573.439
383.973	790.379
384.622	672.514
385.27 	1260.12
385.918	469.774
386.566  	808.395
387.214 	586.24
387.861	712.91
388.509	705.473
389.157 	348.567
389.804  	810.513
390.452	450.499
391.099 	776.596
391.746	379.72
392.393	158.783
393.04	298.009
393.687	707.598
394.334	333.516
394.981  	912.069
395.628 	699.096
396.274 	512.564
396.921 	40.5985
397.567 	538.209
398.214  	456.925
398.86	506.149
399.506 	310.925
400.152	200.947
400.798  	1060.72
401.444 	645.91
402.089	648.039
402.735	251.676
403.38 	1092.27
404.026    	1162.64
404.671 	955.354
405.316 	607.563
405.962 	971.178
406.607	790.379
407.252	934.246
407.896      	223.624
408.541   	1249.65
409.186  	717.16
409.83	388.308
410.475  	88.3679
411.119 	103.55
411.764 	900.447
412.408	60.1508
413.052  	749.014
413.696 	365.759
414.34 	223.624
414.984 	615.023
415.627 	591.572
416.271  	370.055
416.914 	443
417.558	623.547
418.201	593.704
418.844 	604.365
419.487	1084.91
420.13 	437.642
420.773	307.697
421.416  	374.351
422.059	427.996
422.701 	537.141
423.344   	150.127
423.986	600.101
424.629	512.564
425.271    	214.987
425.913	969.068
426.555 	539.278
427.197	612.892
427.839     	455.854
428.481	882.479
429.122 	605.431
429.764	450.499
430.405 	793.559
431.047	198.786
431.688   	856.038
432.329	342.118
432.97 	-133.841
433.611    	-6.16782
434.252	480.477
434.892 	470.844
435.533 	942.691
436.174	1103.83
436.814	1197.26
437.454	80.7739
438.095 	374.351
438.735	570.238
439.375 	780.838
440.015 	611.826
440.654  	1084.91
441.294 	875.077
441.934	976.451
442.573	737.337
443.213	321.685
443.852 	365.759
444.491     	638.457
445.13 	592.638
445.769	953.244
446.408      	522.183
447.047  	474.055
447.686 	461.208
448.324	531.8
448.963	147.962
449.601  	772.354
450.239	713.973
450.878	698.033
451.516  	508.287
452.154	1029.14
452.792	882.479
453.429 	588.372
454.067  	1606.29
454.705    	497.594
455.342   	955.354
455.979 	665.067
456.617	696.97
457.254	818.988
457.891   	832.754
458.528	227.942
459.165	489.036
459.801	905.73
460.438    	628.873
461.075 	586.24
461.711        	76.4335
462.347	467.633
462.983 	377.572
463.62 	204.188
464.256 	590.505
464.891	547.821
465.527	222.545
466.163 	444.071
466.798	394.747
467.434  	130.639
468.069     	455.854
468.705    	618.22
469.34	602.234
469.975 	750.075
470.61  	349.642
471.245 	1000.7
471.879	244.126
472.514   	529.663
473.148        	112.221
473.783  	603.299
474.417 	198.786
475.051	1239.17
475.685	477.266
476.319	154.455
476.953 	932.135
477.587 	506.149
478.221	494.385
478.854 	-11.6111
479.488 	581.973
480.121       	1069.13
480.754 	-217.119
481.387   	889.879
482.02 	623.547
482.653 	1239.17
483.286     	417.275
483.919	788.259
484.551 	207.428
485.184 	671.45
485.816  	591.572
486.449 	942.691
487.081  	991.211
487.713 	608.629
488.345 	941.635
488.976	908.9
489.608	692.718
490.24 	776.596
490.871 	581.973
491.503   	761.747
492.134	321.685
492.765    	949.023
493.396 	847.573
494.027   	704.41
494.658   	1468.98
495.289  	1438.75
495.919  	569.17
496.55     	263.535
497.18	746.891
497.81 	1164.74
498.441   	518.977
499.071 	868.732
499.701    	1114.34
500.331 	963.794
500.96 	648.039
501.59 	762.808
502.219	745.83
502.849 	1139.55
503.478 	616.089
504.107 	696.97
504.736      	1081.75
505.365 	813.691
505.994      	1371.98
506.623 	653.361
507.251    	1154.24
507.88	636.328
508.508 	996.481
509.137 	1285.23
509.765 	579.84
510.393 	769.172
511.021 	912.069
511.649   	830.636
512.276     	1225.55
512.904 	738.399
513.531   	1139.55
514.159 	1109.08
514.786     	918.407
515.413 	909.956
516.04 	849.689
516.667   	1184.67
517.294  	1393.9
517.921  	1196.21
518.547    	1575.12
519.174      	1083.86
519.8  	728.843
520.426 	1184.67
521.053 	1468.98
521.679  	1650.93
522.305 	1208.79
522.93  	1861.15
523.556   	1199.35
524.182  	1198.3
524.807 	934.246
525.432  	1485.64
526.057  	1156.34
526.683     	835.93
527.308     	1504.38
527.932 	821.106
528.557 	1562.64
529.182   	1260.12
529.806   	1007.02
530.431  	1233.94
531.055  	1374.07
531.679 	814.751
532.303  	1771.16
532.927    	1269.54
533.551 	1303.02
534.175     	1162.64
534.798 	1849.78
535.422         	980.668
536.045 	1223.46
536.668    	1188.87
537.292  	1634.32
537.915 	1683.09
538.538 	1439.8
539.16  	1352.14
539.783   	1502.3
540.406   	1433.54
541.028  	1538.72
541.65  	2073.62
542.272     	1449.18
542.895       	2061.27
543.516  	1735.95
544.138  	1749.42
544.76   	1969.55
545.382 	1698.64
546.003 	1290.46
546.625    	1489.81
547.246  	1724.56
547.867 	1681.02
548.488 	1742.17
549.109  	1397.03
549.73 	1537.68
550.35  	1610.44
550.971      	1672.72
551.591  	1798.07
552.211    	2147.7
552.832  	1780.48
553.452 	1994.3
554.072  	1900.4
554.691 	2358.12
555.311  	1711.08
555.931 	1337.51
556.55 	1819.79
557.17  	1890.08
557.789 	1883.88
558.408  	1745.27
559.027    	1724.56
559.646   	1773.23
560.264 	1787.72
560.883   	2174.43
561.502  	1826
562.12  	1958.2
562.738 	2181.62
563.356 	1378.25
563.974   	1541.84
564.592    	1670.64
565.21 	1384.51
565.828 	1666.49
566.445 	1685.16
567.063  	1742.17
567.68   	1753.56
568.297   	1673.76
568.914  	1697.61
569.531 	2244.27
570.148  	1979.86
570.765  	1309.29
571.381   	1374.07
571.998    	2232.98
572.614 	1940.66
573.23 	1997.39
573.846 	1419.98
574.462  	1786.69
575.078   	2009.76
575.694   	1339.6
576.309 	1918.99
576.925   	2026.25
577.54  	1906.6
578.155  	1524.16
578.77 	1642.63
579.385 	1319.74
580                	1669.61
580.615    	1992.24
581.229 	1922.09
581.844          	1968.52
582.458  	2549.49
583.072 	2039.64
583.686  	1922.09
584.3  	2308.92
584.914 	1941.7
585.528  	1639.51
586.142 	1388.68
586.755  	1634.32
587.368 	1322.88
587.982  	1955.11
588.595 	1723.52
589.208  	1759.77
589.82 	2477.92
590.433  	1830.14
591.046  	2176.48
591.658 	2262.75
592.271  	2142.56
592.883        	1439.8
593.495 	1451.26
594.107 	1648.86
594.719          	1931.38
595.33  	2033.46
595.942  	1979.86
596.553   	1690.35
597.165   	2046.85
597.776  	1767.02
598.387  	1777.37
598.998      	2212.44
599.609    	1295.69
600.22  	1692.42
600.83  	1953.05
601.441  	1591.74
602.051  	1258.02
602.661     	1822.9
603.271 	1644.7
603.881   	2066.42
604.491   	1587.59
605.101     	1986.05
605.71   	1693.46
606.32   	2478.94
606.929 	2370.42
607.538     	1948.92
608.147  	1548.08
608.756  	2025.22
609.365    	1907.63
609.973 	2942.97
610.582 	1751.49
611.19 	1539.76
611.799 	1698.64
612.407    	1958.2
613.015  	1872.51
613.623  	1918.99
614.23 	1855.98
614.838  	1986.05
615.446   	1877.68
616.053 	1270.58
616.66       	1923.12
617.267 	1993.27
617.874   	2042.73
618.481  	2059.21
619.088  	1814.62
619.694     	1799.11
620.301 	1839.44
620.907 	1747.35
621.513  	1517.91
622.119   	2419.58
622.725   	1465.85
623.331  	2088.03
623.937 	1864.25
624.542  	2060.24
625.148 	1491.89
625.753  	1385.55
626.358 	2059.21
626.963  	1703.83
627.568   	1635.36
628.173     	1986.05
628.777  	2252.49
629.382  	1421.03
629.986      	1730.77
630.591   	2474.85
631.195 	1312.43
631.799   	1664.42
632.402  	1533.52
633.006   	1979.86
633.61  	1010.18
634.213   	1498.14
634.816       	1433.54
635.42  	1488.77
636.023 	1436.67
636.625    	1267.44
637.228   	1209.84
637.831  	1054.4
638.433  	1304.06
639.036  	1466.89
639.638  	936.357
640.24  	1661.31
640.842 	1530.4
641.444  	1131.15
642.046   	990.157
642.647   	1208.79
643.249  	1311.38
643.85 	543.55
644.451 	770.233
645.052  	917.351
645.653 	778.717
646.254  	672.514
646.854  	876.135
647.455 	1541.84
648.055  	847.573
648.656   	634.198
649.256   	784.018
649.856 	649.104
650.455   	1201.45
651.055  	1029.14
651.655   	806.276
652.254 	829.577
652.853   	1253.83
653.452   	789.319
654.051  	721.409
654.65  	857.096
655.249     	952.189
655.848  	355.015
656.446   	861.328
657.044 	35.1648
657.643      	947.968
658.241  	1028.09
658.839  	751.136
659.436   	529.663
660.034   	791.439
660.631 	756.442
661.229   	1089.11
661.826  	1175.23
662.423   	710.786
663.02    	813.691
663.617  	922.631
664.214  	287.24
664.81    	642.716
665.406   	-1.81398
666.003 	860.27
666.599   	740.522
667.195    	245.205
667.791 	388.308
668.386   	931.079
668.982  	992.265
669.577 	270.002
670.173  	523.252
670.768 	559.565
671.363  	536.073
671.958   	1392.86
672.552   	594.771
673.147  	939.524
673.742  	112.221
674.336        	706.535
674.93 	443
675.524   	332.441
676.118  	279.7
676.712  	337.817
677.305   	610.76
677.899    	312.002
678.492  	211.748
679.086 	1125.89
679.679  	366.833
680.271      	385.088
680.864     	394.747
681.457  	75.3483
682.049  	406.55
682.642 	790.379
683.234  	851.806
683.826 	14.5065
684.418 	556.363
685.01 	713.973
685.602 	901.504
686.193  	343.193
686.784   	537.141
687.376  	-60.6519
687.967  	330.29
688.558 	775.536
689.148        	527.526
689.739  	449.428
690.33  	298.009
690.92  	615.023
691.51    	143.632
692.1 	894.106
692.69  	1040.72
693.28  	353.941
693.87   	659.747
694.459  	197.706
695.049 	440.857
695.638 	248.44
696.227    	461.208
696.816  	700.159
697.405  	1038.61
697.994  	287.24
698.582 	723.533
699.17    	183.657
699.759 	26.4685
700.347  	548.889
700.935 	504.01
701.523  	717.16
702.11  	745.83
702.698    	124.14
703.285       	212.828
703.872 	312.002
704.459    	-19.2337
705.046    	94.8754
705.633  	189.061
706.22  	601.167
706.806   	891.992
707.393  	730.967
707.979    	214.987
708.565  	443
709.151  	667.195
709.737 	211.748
710.322  	334.592
710.908 	55.8071
711.493 	289.394
712.078  	953.244
712.663  	588.372
713.248  	593.704
713.833 	217.147
714.418 	1361.54
715.002 	129.556
715.587 	364.685
716.171  	1154.24
716.755 	-41.0246
717.339 	452.641
717.922 	-66.1066
718.506 	434.427
719.089  	820.047
719.673 	112.221
720.256  	273.235
720.839 	706.535
721.422 	811.573
722.005  	605.431
722.587  	209.588
723.169 	452.641
723.752   	642.716
724.334  	404.404
724.916  	688.466
725.498  	781.898
726.079   	1244.41
726.661   	143.632
727.242  	140.384
727.823   	880.364
728.405 	909.956
728.985  	760.686
729.566  	339.968
730.147    	1050.19
730.727  	857.096
731.308  	339.968
731.888   	617.154
732.468   	384.014
733.048 	390.455
733.628   	451.57
734.207   	802.037
734.787 	423.708
735.366   	19.9445
735.945 	-63.9246
736.524 	638.457
737.103 	726.719
737.682      	2.53915
738.26 	672.514
738.839   	229.021
739.417  	673.578
739.995 	14.5065
740.573  	485.827
741.151   	764.929
741.728   	230.1
742.306  	347.492
742.883 	226.862
743.46  	977.505
744.037   	569.17
744.614     	631.003
745.191 	552.092
745.768      	448.356
746.344   	303.391
746.92  	825.342
747.496 	553.16
748.072  	878.249
748.648   	391.528
749.224   	710.786
749.799 	193.384
750.375   	362.536
750.95   	502.941
751.525  	556.363
752.1  	332.441
752.675  	325.988
753.249 	368.981
753.824 	400.113
754.398  	307.697
754.972 	281.854
755.546 	468.703
756.12 	739.461
756.694  	506.149
757.267 	770.233
757.841 	419.419
758.414 	1104.88
758.987  	590.505
759.56   	652.297
760.133 	-32.306
760.705  	937.413
761.278  	359.313
761.85  	658.683
762.422   	144.715
762.994      	1168.94
763.566 	405.477
764.138     	616.089
764.709 	448.356
765.281   	641.652
765.852   	205.268
766.423     	359.313
766.994  	905.73
767.564      	1029.14
768.135 	64.4938
768.706    	394.747
769.276 	563.834
769.846   	666.131
770.416  	199.867
770.986  	695.907
771.555   	808.395
772.125  	474.055
772.694  	146.88
773.263   	597.969
773.833    	1150.05
774.401     	304.468
774.97  	688.466
775.539  	370.055
776.107  	586.24
776.675    	786.139
777.243   	421.564
777.811  	585.173
778.379   	302.315
778.947    	721.409
779.514  	72.0924
780.082    	611.826
780.649   	505.08
781.216  	248.44
781.783  	691.655
782.349  	785.079
782.916   	288.317
783.482 	1098.57
784.048    	318.458
784.614  	508.287
785.18 	461.208
785.746  	781.898
786.312     	128.473
786.877      	668.259
787.442  	60.1508
788.007    	936.357
788.572      	745.83
789.137 	609.695
789.702    	460.138
790.266    	245.205
790.83  	768.112
791.395       	762.808
791.958    	419.419
792.522  	455.854
793.086 	790.379
793.65  	532.868
794.213 	7.97954
794.776  	-148.066
795.339 	615.023
795.902 	424.78
796.465   	1078.6
797.027 	696.97
797.59 	733.091
798.152  	250.597
798.714 	206.348
799.276 	499.733
799.837    	378.646
800.399  	449.428
800.96    	321.685
801.522 	1056.51
802.083   	527.526
802.644  	301.238
803.204  	474.055
803.765 	438.714
804.326 	487.967
804.886 	319.534
805.446  	1376.16
806.006      	943.746
806.566   	175.008
807.125 	48.2039
807.685 	909.956
808.244 	771.294
808.803    	777.657
809.362  	417.275
809.921  	-6.16782
810.48 	832.754
811.038  	411.913
811.596 	898.334
812.155  	56.8931
812.713 	708.66
813.271     	356.09
813.828 	419.419
814.386     	462.279
814.943   	1252.79
815.5   	579.84
816.057  	199.867
816.614  	406.55
817.171 	703.347
817.727 	609.695
818.284    	255.989
818.84  	909.956
819.396    	1175.23
819.952 	371.129
820.508   	1012.29
821.063  	581.973
821.618 	851.806
822.174  	573.439
822.729   	692.718
823.284  	322.761
823.838 	785.079
824.393 	764.929
824.947      	286.163
825.501    	800.978
826.056  	728.843
826.609 	26.4685
827.163  	308.773
827.717  	482.617
828.27 	315.23
828.823  	665.067
829.376  	580.906
829.929  	67.7506
830.482  	391.528
831.035  	469.774
831.587 	34.0779
832.139    	364.685
832.691 	328.139
833.243     	54.721
833.795 	80.7739
834.346   	795.679
834.898  	506.149
835.449   	268.925
836  	165.274
836.551   	850.747
837.102  	627.807
837.652  	685.276
838.203    	517.908
838.753  	1262.21
839.303  	806.276
839.853   	456.925
840.402  	61.2366
840.952  	85.1136
841.501 	136.053
842.051 	559.565
842.6      	673.578
843.149  	1155.29
843.697 	524.32
844.246  	478.336
844.794  	577.706
845.342    	786.139
845.89 	500.802
846.438 	318.458
846.986    	165.274
847.533 	804.156
848.081  	-32.306
848.628     	636.328
849.175  	190.142
849.722     	147.962
850.268  	1197.26
850.815 	127.39
851.361  	492.246
851.907  	32.991
852.453   	856.038
852.999  	237.653
853.545  	397.967
854.09 	798.858
854.636  	974.341
855.181     	471.914
855.726  	640.587
856.27  	726.719
856.815  	777.657
857.359  	-17.0556
857.904    	542.482
858.448  	223.624
858.992  	629.938
859.536  	751.136
860.079     	581.973
860.623    	577.706
861.166   	264.613
861.709  	615.023
862.252  	402.258
862.795  	360.388
863.337  	562.767
863.879    	754.32
864.422   	408.695
864.964   	255.989
865.505  	964.849
866.047  	343.193
866.589  	541.414
867.13  	147.962
867.671  	16.6818
868.212  	571.305
868.753  	271.08
869.294   	536.073
869.834   	590.505
870.375    	624.612
870.915    	551.025
871.455    	809.454
871.994  	330.29
872.534   	246.283
873.073  	528.595
873.613   	86.1984
874.152   	319.534
874.691  	291.548
875.229  	299.085
875.768  	611.826
876.306  	669.323
876.844   	452.641
877.382  	388.308
877.92  	636.328
878.458     	363.611
878.995  	502.941
879.533  	846.514
880.07  	913.125
880.607  	822.165
881.144   	589.439
881.68   	477.266
882.217  	481.547
882.753   	505.08
883.289   	492.246
883.825     	650.168
884.361    	403.331
884.896      	98.1286
885.432   	411.913
885.967   	318.458
886.502  	315.23
887.037  	730.967
887.572  	-89.0289
888.106   	587.306
888.641  	486.897
889.175  	366.833
889.709  	370.055
890.242   	652.297
890.776  	827.46
891.309  	226.862
891.843     	464.421
892.376  	486.897
892.909    	695.907
893.442  	537.141
893.974  	518.977
894.506    	153.373
895.039    	376.499
895.571   	-46.4751
896.102  	423.708
896.634  	208.508
897.166  	575.572
897.697  	496.524
898.228    	494.385
898.759  	316.306
899.29  	815.81
899.82        	976.451
900.351  	671.45
900.881  	750.075
901.411   	927.911
901.941  	982.777
902.47   	778.717
903                	452.641
903.529  	89.4526
904.058  	202.027
904.588  	526.458
905.116     	485.827
905.645   	459.067
906.173    	206.348
906.702  	482.617
907.23  	463.35
907.757  	656.554
908.285       	565.969
908.813   	424.78
909.34  	533.937
909.867        	789.319
910.394  	1008.07
910.921  	806.276
911.448  	761.747
911.974  	156.619
912.5   	542.482
913.026     	562.767
913.552    	40.5985
914.078   	250.597
914.603  	-111.972
915.129  	584.106
915.654  	542.482
916.179   	800.978
916.704  	378.646
917.228   	114.389
917.753   	514.701
918.277  	219.306
918.801   	792.499
919.325   	589.439
919.849     	308.773
920.372     	587.306
920.896     	747.952
921.419  	774.475
921.942  	651.233
922.464    	386.161
922.987  	882.479
923.509    	433.355
924.032  	755.381
924.554  	210.668
925.075   	572.372
925.597    	557.43
926.119    	934.246
926.64   	526.458
927.161  	243.047
927.682  	-263.261
928.203  	773.415
928.723  	66.6651
929.244    	943.746
929.764   	207.428
930.284   	54.721
930.804     	479.406
931.323  	1178.38
931.843     	581.973
932.362   	526.458
932.881   	337.817
933.4  	245.205
933.919   	708.66
934.437   	309.849
934.956    	309.849
935.474  	264.613
935.992  	449.428
936.51   	399.04
937.027   	979.614
937.545  	654.426
938.062   	506.149
938.579  	584.106
939.096      	982.777
939.612     	730.967
940.129  	577.706
940.645    	755.381
941.161     	288.317
941.677  	719.284
942.193  	111.137
942.708  	506.149
943.224     	120.89
943.739  	645.91
944.254  	922.631
944.769     	693.781
945.283      	1146.9
945.798   	305.544
946.312   	808.395
946.826  	456.925
947.34  	235.495
947.853  	197.706
948.367  	455.854
948.88   	294.778
949.393  	704.41
949.906  	254.911
950.419  	280.777
950.931  	708.66
951.444   	734.152
951.956   	528.595
952.468     	48.2039
952.979     	282.932
953.491  	179.333
954.002    	375.425
954.514      	25.3813
955.025   	329.215
955.536  	285.086
956.046   	869.79
956.557  	461.208
957.067  	364.685
957.577  	562.767
958.087   	168.519
958.596   	-60.6519
959.106  	699.096
959.615  	634.198
960.124   	656.554
960.633  	139.302
961.142   	112.221
961.65      	424.78
962.159    	656.554
962.667  	-68.2888
963.175     	290.471
963.683     	-200.661
964.19   	145.797
964.698   	185.819
965.205  	727.781
965.712   	438.714
966.219   	606.497
966.725    	485.827
967.232  	711.848
967.738    	1047.04
968.244  	175.008
968.75  	294.778
969.255  	494.385
969.761     	506.149
970.266  	-113.065
970.771  	487.967
971.276    	302.315
971.781  	293.702
972.285  	684.213
972.789  	322.761
973.293    	430.14
973.797    	449.428
974.301  	499.733
974.805  	704.41
975.308  	389.381
975.811    	97.0442
976.314    	807.335
976.817  	556.363
977.319     	729.905
977.822  	-15.9666
978.324    	561.7
978.826  	514.701
979.328  	430.14
979.829     	301.238
980.33  	1.45093
980.832  	-21.4119
981.333  	795.679
981.833    	-39.9346
982.334      	437.642
982.834    	-41.0246
983.335   	378.646
983.835   	334.592
984.334    	811.573
984.834  	176.089
985.333    	43.8582
985.833   	-13.7888
986.332   	974.341
986.831  	618.22
987.329  	613.957
987.828    	16.6818
988.326   	593.704
988.824   	600.101
989.322  	897.277
989.819  	316.306
990.317  	1271.63
990.814   	543.55
991.311   	776.596
991.808    	14.5065
992.305  	555.295
992.801    	751.136
993.298   	898.334
993.794   	183.657
994.29    	636.328
994.785       	790.379
995.281  	429.068
995.776  	223.624
996.271    	694.844
996.766   	304.468
997.261  	193.384
997.755   	330.29
998.249  	302.315
998.744  	422.636
999.237  	691.655
999.731  	524.32
1000.22     	690.592
1000.72 	709.723
1001.21       	235.495
1001.7  	298.009
1002.2 	707.598
1002.69 	530.732
1003.18  	317.382
1003.67 	657.619
1004.17 	545.686
1004.66 	342.118
1005.15 	399.04
1005.64  	1277.91
1006.13 	739.461
1006.62 	401.186
1007.11  	389.381
1007.6 	224.704
1008.09 	305.544
1008.58   	507.218
1009.07 	105.718
1009.56 	-161.205
1010.05 	725.657
1010.54 	901.504
1011.03  	436.571
1011.52 	315.23
1012.01  	652.297
1012.5    	703.347
1012.99    	778.717
1013.47  	666.131
1013.96 	957.464
1014.45  	-121.811
1014.94    	274.313
1015.42 	581.973
1015.91 	-32.306
1016.4  	462.279
1016.88 	237.653
1017.37  	78.6038
1017.86  	779.777
1018.34 	450.499
1018.83 	91.6219
1019.31  	-195.177
1019.8 	235.495
1020.29  	440.857
1020.77    	224.704
1021.26 	232.258
1021.74 	564.902
1022.22  	478.336
1022.71 	546.753
1023.19  	404.404
1023.68  	544.618
1024.16 	567.036
1024.64 	895.163
1025.13  	189.061
1025.61 	482.617
1026.09  	494.385
1026.58    	293.702
1027.06    	707.598
1027.54  	788.259
1028.02  	451.57
1028.5 	162.029
1028.99  	529.663
1029.47 	1074.39
1029.95 	404.404
1030.43 	222.545
1030.91  	620.351
1031.39  	-71.5625
1031.87 	351.791
1032.35  	280.777
1032.83  	209.588
1033.31   	868.732
1033.79   	319.534
1034.27 	286.163
1034.75     	374.351
1035.23 	529.663
1035.71   	117.639
1036.18   	288.317
1036.66 	154.455
1037.14 	675.705
1037.62  	483.687
1038.1  	481.547
1038.57  	1145.85
1039.05      	1116.44
1039.53   	401.186
1040  	278.622
1040.48  	576.639
1040.96 	1244.41
1041.43  	649.104
1041.91  	669.323
1042.39    	976.451
1042.86     	621.416
1043.34  	654.426
1043.81 	87.2832
1044.29  	717.16
1044.76 	-36.6649
1045.24  	407.622
1045.55 	1120.64