File: JinData/Spectra_output_0_1736790505.txt
Wavelength [nm]    	Intensity [counts]
344.912	-1879.86
345.565 	-1830.92
346.219	661.379
346.872 	375.998
347.526   	553.729
348.179   	995.989
348.832  	789.884
349.485	661.379
350.138  	787.764
350.791   	693.285
351.444	631.571
352.097	541.983
352.75 	551.594
353.402 	504.581
354.055        	903.124
354.707 	784.584
355.359 	695.411
356.012	1317.17
356.664   	1001.26
357.316	532.37
357.968	821.671
358.62	1328.66
359.272	403.904
359.923 	888.328
360.575	902.068
361.226  	952.752
361.878	1016.01
362.529 	554.797
363.181	457.496
363.832	494.956
364.483  	1191.52
365.134     	731.533
365.785	692.222
366.436	895.727
367.086 	1342.25
367.737 	903.124
368.387	901.011
369.038	836.494
369.688	1544.48
370.339	782.464
370.989 	1064.43
371.639	543.051
372.289   	586.808
372.939   	674.145
373.589 	828.025
374.238       	338.391
374.888   	993.881
375.537  	558
376.187 	904.181
376.836  	736.842
377.486   	804.722
378.135      	676.272
378.784 	813.197
379.433   	710.29
380.082   	1314.03
380.731  	455.354
381.379 	696.474
382.028  	1200.96
382.676	1382.98
383.325   	706.04
383.973	575.075
384.622	1002.31
385.27 	1415.33
385.918	660.314
386.566  	911.576
387.214 	805.781
387.861	1089.67
388.509	738.965
389.157 	531.301
389.804  	1087.57
390.452	757.008
391.099 	887.271
391.746	540.915
392.393	232.834
393.04	446.785
393.687	855.544
394.334	514.203
394.981  	1238.68
395.628 	859.776
396.274 	533.438
396.921 	204.764
397.567 	697.537
398.214  	820.612
398.86	692.222
399.506 	586.808
400.152	366.332
400.798  	1099.14
401.444 	632.636
402.089	881.985
402.735	565.471
403.38 	1220.87
404.026    	971.74
404.671 	927.418
405.316 	868.238
405.962 	1131.71
406.607	894.67
407.252	890.442
407.896      	530.233
408.541   	1449.73
409.186  	873.526
409.83	806.841
410.475  	522.753
411.119 	396.393
411.764 	921.082
412.408	210.164
413.052  	961.192
413.696 	796.244
414.34 	329.788
414.984 	603.868
415.627 	582.542
416.271  	674.145
416.914 	604.934
417.558	820.612
418.201	879.871
418.844 	768.677
419.487	1048.65
420.13 	533.438
420.773	437.142
421.416  	632.636
422.059	746.396
422.701 	492.816
423.344   	272.732
423.986	751.702
424.629	574.008
425.271    	280.275
425.913	1205.15
426.555 	907.35
427.197	612.395
427.839     	510.996
428.481	1099.14
429.122 	854.486
429.764	517.409
430.405 	794.124
431.047	354.514
431.688   	1078.11
432.329	452.141
432.97 	-110.296
433.611    	25.9613
434.252	737.904
434.892 	767.617
435.533 	937.976
436.174	1306.71
436.814	1484.11
437.454	274.887
438.095 	590.008
438.735	931.642
439.375 	1006.53
440.015 	579.342
440.654  	1084.42
441.294 	1168.45
441.934	1345.38
442.573	828.025
443.213	345.916
443.852 	618.788
444.491     	943.254
445.13 	640.09
445.769	1023.38
446.408      	735.78
447.047  	708.165
447.686 	611.329
448.324	462.85
448.963	385.66
449.601  	912.633
450.239	608.132
450.878	556.932
451.516  	674.145
452.154	1320.3
452.792	899.954
453.429 	759.13
454.067  	1654.6
454.705    	634.766
455.342   	836.494
455.979 	601.736
456.617	969.631
457.254	948.531
457.891   	843.904
458.528	324.41
459.165	854.486
459.801	1221.92
460.438    	624.115
461.075 	629.441
461.711        	211.244
462.347	776.101
462.983 	415.702
463.62 	223.121
464.256 	790.945
464.891	832.26
465.527	328.713
466.163 	429.64
466.798	621.984
467.434  	264.11
468.069     	571.874
468.705    	490.677
469.34	748.518
469.975 	788.824
470.61  	565.471
471.245 	941.143
471.879	375.998
472.514   	842.846
473.148        	182.071
473.783  	593.207
474.417 	299.659
475.051	1401.76
475.685	451.07
476.319	375.998
476.953 	1213.54
477.587 	585.742
478.221	572.941
478.854 	134.465
479.488 	773.98
480.121       	1199.91
480.754 	-143.105
481.387   	689.033
482.02 	870.354
482.653 	1356.87
483.286     	496.025
483.919	623.05
484.551 	182.071
485.184 	731.533
485.816  	504.581
486.449 	927.418
487.081  	1121.2
487.713 	841.787
488.345 	789.884
488.976	772.92
489.608	810.019
490.24 	743.211
490.871 	525.959
491.503   	724.1
492.134	340.541
492.765    	890.442
493.396 	755.947
494.027   	478.907
494.658   	1256.49
495.289  	1360.01
495.919  	278.12
496.55     	48.7834
497.18	806.841
497.81 	967.521
498.441   	565.471
499.071 	738.965
499.701    	968.576
500.331 	861.892
500.96 	475.697
501.59 	621.984
502.219	714.54
502.849 	1210.39
503.478 	383.513
504.107 	464.992
504.736      	1023.38
505.365 	598.538
505.994      	931.642
506.623 	441.428
507.251    	997.043
507.88	398.539
508.508 	672.018
509.137 	867.181
509.765 	393.174
510.393 	454.283
511.021 	469.274
511.649   	498.164
512.276     	935.865
512.904 	285.661
513.531   	623.05
514.159 	637.961
514.786     	627.311
515.413 	512.065
516.04 	294.276
516.667   	826.966
517.294  	1139.06
517.921  	1080.21
518.547    	842.846
519.174      	856.602
519.8  	353.439
520.426 	849.195
521.053 	848.137
521.679  	548.391
522.305 	718.789
522.93  	1310.89
523.556   	438.214
524.182  	518.478
524.807 	408.194
525.432  	788.824
526.057  	517.409
526.683     	432.855
527.308     	980.176
527.932 	425.352
528.557 	624.115
529.182   	460.709
529.806   	274.887
530.431  	385.66
531.055  	653.929
531.679 	163.688
532.303  	1249.16
532.927    	678.399
533.551 	454.283
534.175     	559.067
534.798 	1029.7
535.422         	387.807
536.045 	292.122
536.668    	572.941
537.292  	770.799
537.915 	913.689
538.538 	398.539
539.16  	644.349
539.783   	884.1
540.406   	1107.54
541.028  	506.719
541.65  	851.312
542.272     	644.349
542.895       	1311.94
543.516  	606
544.138  	748.518
544.76   	1010.74
545.382 	686.906
546.003 	329.788
546.625    	534.506
547.246  	881.985
547.867 	910.52
548.488 	518.478
549.109  	231.755
549.73 	346.991
550.35  	645.414
550.971      	408.194
551.591  	546.255
552.211    	1092.83
552.832  	806.841
553.452 	772.92
554.072  	604.934
554.691 	1169.5
555.311  	565.471
555.931 	150.704
556.55 	637.961
557.17  	854.486
557.789 	834.377
558.408  	367.406
559.027    	609.197
559.646   	630.506
560.264 	868.238
560.883   	931.642
561.502  	712.415
562.12  	838.612
562.738 	1204.1
563.356 	58.5583
563.974   	280.275
564.592    	384.587
565.21 	329.788
565.828 	587.875
566.445 	496.025
567.063  	669.89
567.68   	981.231
568.297   	427.496
568.914  	663.507
569.531 	979.122
570.148  	1142.21
570.765  	483.188
571.381   	367.406
571.998    	1205.15
572.614 	1212.49
573.23 	725.162
573.846 	342.691
574.462  	814.257
575.078   	915.802
575.694   	398.539
576.309 	707.102
576.925   	1032.86
577.54  	898.897
578.155  	472.486
578.77 	649.672
579.385 	277.042
580                	418.919
580.615    	663.507
581.229 	732.595
581.844          	828.025
582.458  	1377.76
583.072 	386.734
583.686  	400.685
584.3  	937.976
584.914 	939.032
585.528  	263.032
586.142 	159.361
586.755  	103.044
587.368 	113.883
587.982  	682.653
588.595 	474.626
589.208  	926.363
589.82 	1382.98
590.433  	787.764
591.046  	832.26
591.658 	952.752
592.271  	928.474
592.883        	333.015
593.495 	340.541
594.107 	563.337
594.719          	1068.64
595.33  	748.518
595.942  	723.038
596.553   	302.889
597.165   	1120.15
597.776  	222.041
598.387  	460.709
598.998      	1076
599.609    	239.308
600.22  	345.916
600.83  	821.671
601.441  	530.233
602.051  	114.967
602.661     	727.286
603.271 	451.07
603.881   	929.53
604.491   	481.047
605.101     	672.018
605.71   	547.323
606.32   	1170.55
606.929 	1277.42
607.538     	508.858
608.147  	379.219
608.756  	769.738
609.365    	1016.01
609.973 	725.162
610.582 	442.5
611.19 	397.466
611.799 	714.54
612.407    	682.653
613.015  	664.571
613.623  	677.336
614.23 	929.53
614.838  	737.904
615.446   	697.537
616.053 	87.8619
616.66       	948.531
617.267 	520.616
617.874   	799.423
618.481  	1005.47
619.088  	807.9
619.694     	524.891
620.301 	456.425
620.907 	494.956
621.513  	567.605
622.119   	808.96
622.725   	98.707
623.331  	897.841
623.937 	836.494
624.542  	625.18
625.148 	415.702
625.753  	222.041
626.358 	1068.64
626.963  	362.035
627.568   	877.756
628.173     	963.302
628.777  	1345.38
629.382  	273.81
629.986      	429.64
630.591   	1327.62
631.195 	510.996
631.799   	560.135
632.402  	581.475
633.006   	1106.49
633.61  	508.858
634.213   	560.135
634.816       	813.197
635.42  	1113.85
636.023 	921.082
636.625    	699.663
637.228   	594.273
637.831  	640.09
638.433  	947.475
639.036  	813.197
639.638  	682.653
640.24  	1255.44
640.842 	1188.38
641.444  	498.164
642.046   	426.424
642.647   	936.921
643.249  	1183.13
643.85 	215.563
644.451 	451.07
645.052  	695.411
645.653 	567.605
646.254  	337.316
646.854  	665.635
647.455 	1567.35
648.055  	880.928
648.656   	413.557
649.256   	591.074
649.856 	401.758
650.455   	920.026
651.055  	633.701
651.655   	477.837
652.254 	901.011
652.853   	1184.18
653.452   	486.397
654.051  	561.202
654.65  	895.727
655.249     	937.976
655.848  	242.544
656.446   	553.729
657.044 	106.296
657.643      	1019.17
658.241  	888.328
658.839  	577.208
659.436   	592.141
660.034   	998.097
660.631 	533.438
661.229   	891.499
661.826  	1186.28
662.423   	964.357
663.02    	793.064
663.617  	742.15
664.214  	550.526
664.81    	641.155
665.406   	-50.2547
666.003 	689.033
666.599   	729.41
667.195    	184.233
667.791 	328.713
668.386   	653.929
668.982  	1240.78
669.577 	565.471
670.173  	661.379
670.768 	577.208
671.363  	663.507
671.958   	1393.42
672.552   	512.065
673.147  	951.697
673.742  	229.597
674.336        	818.493
674.93 	663.507
675.524   	239.308
676.118  	247.937
676.712  	421.064
677.305   	678.399
677.899    	246.859
678.492  	281.352
679.086 	1265.91
679.679  	399.612
680.271      	530.233
680.864     	633.701
681.457  	159.361
682.049  	428.568
682.642 	859.776
683.234  	1279.51
683.826 	138.797
684.418 	604.934
685.01 	614.526
685.602 	1014.96
686.193  	574.008
686.784   	399.612
687.376  	30.3099
687.967  	491.747
688.558 	1063.38
689.148        	639.025
689.739  	565.471
690.33  	322.259
690.92  	1005.47
691.51    	160.442
692.1 	892.556
692.69  	1295.21
693.28  	649.672
693.87   	708.165
694.459  	506.719
695.049 	713.477
695.638 	461.78
696.227    	524.891
696.816  	515.272
697.405  	1048.65
697.994  	651.8
698.582 	670.954
699.17    	241.465
699.759 	196.121
700.347  	649.672
700.935 	552.662
701.523  	617.723
702.11  	968.576
702.698    	303.966
703.285       	522.753
703.872 	320.107
704.459    	110.632
705.046    	245.78
705.633  	232.834
706.22  	747.457
706.806   	1105.44
707.393  	1049.7
707.979    	300.736
708.565  	560.135
709.151  	923.195
709.737 	317.956
710.322  	440.357
710.908 	226.359
711.493 	385.66
712.078  	1379.85
712.663  	609.197
713.248  	636.896
713.833 	334.09
714.418 	1423.67
715.002 	274.887
715.587 	496.025
716.171  	1258.58
716.755 	178.828
717.339 	425.352
717.922 	47.697
718.506 	578.275
719.089  	1019.17
719.673 	143.127
720.256  	349.141
720.839 	1099.14
721.422 	979.122
722.005  	656.058
722.587  	261.954
723.169 	819.553
723.752   	905.237
724.334  	695.411
724.916  	636.896
725.498  	933.753
726.079   	1320.3
726.661   	491.747
727.242  	268.422
727.823   	1013.9
728.405 	988.611
728.985  	824.848
729.566  	505.65
730.147    	1169.5
730.727  	1004.42
731.308  	443.571
731.888   	543.051
732.468   	709.227
733.048 	572.941
733.628   	524.891
734.207   	772.92
734.787 	474.626
735.366   	184.233
735.945 	82.4377
736.524 	525.959
737.103 	1029.7
737.682      	165.851
738.26 	584.675
738.839   	449.999
739.417  	884.1
739.995 	345.916
740.573  	441.428
741.151   	753.825
741.728   	421.064
742.306  	463.921
742.883 	359.886
743.46  	841.787
744.037   	690.096
744.614     	834.377
745.191 	438.214
745.768      	456.425
746.344   	395.32
746.92  	1010.74
747.496 	444.643
748.072  	785.644
748.648   	738.965
749.224   	966.467
749.799 	250.094
750.375   	470.345
750.95   	740.027
751.525  	944.309
752.1  	457.496
752.675  	388.881
753.249 	466.062
753.824 	506.719
754.398  	419.991
754.972 	516.341
755.546 	738.965
756.12 	1040.23
756.694  	402.831
757.267 	540.915
757.841 	645.414
758.414 	1202.01
758.987  	670.954
759.56   	747.457
760.133 	236.071
760.705  	1138.01
761.278  	264.11
761.85  	577.208
762.422   	202.603
762.994      	1347.47
763.566 	427.496
764.138     	504.581
764.709 	633.701
765.281   	828.025
765.852   	338.391
766.423     	305.042
766.994  	1051.81
767.564      	1006.53
768.135 	222.041
768.706    	497.095
769.276 	721.975
769.846   	704.977
770.416  	231.755
770.986  	593.207
771.555   	1072.85
772.125  	789.884
772.694  	372.776
773.263   	486.397
773.833    	1225.07
774.401     	653.929
774.97  	584.675
775.539  	437.142
776.107  	745.334
776.675    	958.027
777.243   	380.293
777.811  	626.245
778.379   	456.425
778.947    	902.068
779.514  	220.962
780.082    	427.496
780.649   	814.257
781.216  	387.807
781.783  	378.145
782.349  	726.224
782.916   	462.85
783.482 	1318.21
784.048    	423.208
784.614  	500.303
785.18 	572.941
785.746  	943.254
786.312     	80.2677
786.877      	607.066
787.442  	294.276
788.007    	1146.41
788.572      	608.132
789.137 	517.409
789.702    	646.478
790.266    	582.542
790.83  	729.41
791.395       	548.391
791.958    	537.711
792.522  	619.853
793.086 	625.18
793.65  	534.506
794.213 	129.05
794.776  	7.47194
795.339 	581.475
795.902 	621.984
796.465   	1204.1
797.027 	852.37
797.59 	608.132
798.152  	395.32
798.714 	348.066
799.276 	606
799.837    	406.049
800.399  	240.387
800.96    	451.07
801.522 	1197.81
802.083   	594.273
802.644  	371.702
803.204  	817.434
803.765 	759.13
804.326 	468.204
804.886 	391.027
805.446  	1394.46
806.006      	861.892
806.566   	310.423
807.125 	193.96
807.685 	985.448
808.244 	1106.49
808.803    	711.352
809.362  	572.941
809.921  	257.642
810.48 	1094.93
811.038  	439.285
811.596 	741.089
812.155  	90.0312
812.713 	901.011
813.271     	369.554
813.828 	343.766
814.386     	730.471
814.943   	1417.41
815.5   	520.616
816.057  	159.361
816.614  	588.941
817.171 	886.214
817.727 	609.197
818.284    	337.316
818.84  	1147.46
819.396    	1159
819.952 	431.784
820.508   	735.78
821.063  	843.904
821.618 	1044.44
822.174  	538.779
822.729   	681.59
823.284  	680.526
823.838 	1086.52
824.393 	754.886
824.947      	396.393
825.501    	1001.26
826.056  	724.1
826.609 	170.178
827.163  	372.776
827.717  	800.483
828.27 	481.047
828.823  	626.245
829.376  	636.896
829.929  	200.443
830.482  	719.851
831.035  	554.797
831.587 	174.503
832.139    	596.406
832.691 	549.459
833.243     	-11.0303
833.795 	227.438
834.346   	991.773
834.898  	746.396
835.449   	350.215
836  	164.77
836.551   	1156.9
837.102  	866.123
837.652  	667.762
838.203    	490.677
838.753  	1092.83
839.303  	843.904
839.853   	316.88
840.402  	160.442
840.952  	137.714
841.501 	481.047
842.051 	353.439
842.6      	624.115
843.149  	1162.15
843.697 	652.865
844.246  	584.675
844.794  	615.591
845.342    	1009.69
845.89 	854.486
846.438 	506.719
846.986    	269.499
847.533 	959.082
848.081  	116.05
848.628     	560.135
849.175  	271.655
849.722     	343.766
850.268  	1237.64
850.815 	385.66
851.361  	532.37
851.907  	232.834
852.453   	904.181
852.999  	443.571
853.545  	370.628
854.09 	1003.37
854.636  	998.097
855.181     	508.858
855.726  	788.824
856.27  	784.584
856.815  	949.586
857.359  	41.1782
857.904    	628.376
858.448  	493.886
858.992  	858.718
859.536  	536.643
860.079     	452.141
860.623    	701.789
861.166   	626.245
861.709  	479.977
862.252  	476.767
862.795  	464.992
863.337  	737.904
863.879    	619.853
864.422   	516.341
864.964   	597.472
865.505  	1056.02
866.047  	535.575
866.589  	602.802
867.13  	414.63
867.671  	357.737
868.212  	560.135
868.753  	498.164
869.294   	833.318
869.834   	690.096
870.375    	545.187
870.915    	508.858
871.455    	979.122
871.994  	374.924
872.534   	225.279
873.073  	416.774
873.613   	217.723
874.152   	428.568
874.691  	412.485
875.229  	365.258
875.768  	789.884
876.306  	840.729
876.844   	564.404
877.382  	379.219
877.92  	953.807
878.458     	468.204
878.995  	648.607
879.533  	762.313
880.07  	932.698
880.607  	820.612
881.144   	507.788
881.68   	577.208
882.217  	664.571
882.753   	759.13
883.289   	513.134
883.825     	584.675
884.361    	632.636
884.896      	119.301
885.432   	452.141
885.967   	517.409
886.502  	543.051
887.037  	1007.58
887.572  	10.7357
888.106   	588.941
888.641  	735.78
889.175  	499.234
889.709  	541.983
890.242   	497.095
890.776  	954.862
891.309  	598.538
891.843     	279.197
892.376  	453.212
892.909    	986.502
893.442  	776.101
893.974  	412.485
894.506    	182.071
895.039    	464.992
895.571   	60.73
896.102  	383.513
896.634  	428.568
897.166  	766.556
897.697  	578.275
898.228    	479.977
898.759  	455.354
899.29  	970.686
899.82        	984.394
900.351  	698.6
900.881  	619.853
901.411   	1117
901.941  	1151.66
902.47   	806.841
903                	568.673
903.529  	303.966
904.058  	308.271
904.588  	453.212
905.116     	607.066
905.645   	664.571
906.173    	440.357
906.702  	455.354
907.23  	428.568
907.757  	685.843
908.285       	728.348
908.813   	486.397
909.34  	504.581
909.867        	934.809
910.394  	974.904
910.921  	778.222
911.448  	772.92
911.974  	293.199
912.5   	862.95
913.026     	629.441
913.552    	153.95
914.078   	379.219
914.603  	-75.3457
915.129  	574.008
915.654  	422.136
916.179   	902.068
916.704  	614.526
917.228   	98.707
917.753   	453.212
918.277  	223.121
918.801   	1098.08
919.325   	475.697
919.849     	375.998
920.372     	799.423
920.896     	1010.74
921.419  	592.141
921.942  	501.373
922.464    	718.789
922.987  	978.068
923.509    	626.245
924.032  	649.672
924.554  	454.283
925.075   	833.318
925.597    	378.145
926.119    	837.553
926.64   	768.677
927.161  	522.753
927.682  	-172.67
928.203  	729.41
928.723  	186.395
929.244    	1009.69
929.764   	312.576
930.284   	142.045
930.804     	628.376
931.323  	1310.89
931.843     	570.807
932.362   	545.187
932.881   	603.868
933.4  	328.713
933.919   	649.672
934.437   	421.064
934.956    	522.753
935.474  	490.677
935.992  	383.513
936.51   	386.734
937.027   	1082.31
937.545  	894.67
938.062   	561.202
938.579  	534.506
939.096      	1080.21
939.612     	874.584
940.129  	677.336
940.645    	790.945
941.161     	451.07
941.677  	836.494
942.193  	295.353
942.708  	532.37
943.224     	258.72
943.739  	853.428
944.254  	793.064
944.769     	716.664
945.283      	1266.96
945.798   	586.808
946.312   	770.799
946.826  	324.41
947.34  	412.485
947.853  	392.1
948.367  	530.233
948.88   	379.219
949.393  	883.043
949.906  	484.258
950.419  	334.09
950.931  	549.459
951.444   	1049.7
951.956   	660.314
952.468     	147.457
952.979     	447.857
953.491  	215.563
954.002    	439.285
954.514      	75.9272
955.025   	371.702
955.536  	408.194
956.046   	1199.91
956.557  	520.616
957.067  	483.188
957.577  	762.313
958.087   	389.954
958.596   	25.9613
959.106  	794.124
959.615  	836.494
960.124   	937.976
960.633  	255.486
961.142   	43.3513
961.65      	793.064
962.159    	934.809
962.667  	-27.3667
963.175     	386.734
963.683     	15.0868
964.19   	243.623
964.698   	93.285
965.205  	730.471
965.712   	565.471
966.219   	833.318
966.725    	309.347
967.232  	611.329
967.738    	1113.85
968.244  	346.991
968.75  	334.09
969.255  	579.342
969.761     	742.15
970.266  	18.3496
970.771  	464.992
971.276    	380.293
971.781  	460.709
972.285  	1048.65
972.789  	437.142
973.293    	534.506
973.797    	539.847
974.301  	579.342
974.805  	625.18
975.308  	611.329
975.811    	269.499
976.314    	948.531
976.817  	545.187
977.319     	673.081
977.822  	267.344
978.324    	820.612
978.826  	670.954
979.328  	506.719
979.829     	505.65
980.33  	87.8619
980.832  	48.7834
981.333  	803.662
981.833    	66.1586
982.334      	618.788
982.834    	63.9873
983.335   	492.816
983.835   	529.165
984.334    	852.37
984.834  	180.99
985.333    	29.2228
985.833   	45.5243
986.332   	1066.54
986.831  	648.607
987.329  	555.865
987.828    	394.247
988.326   	723.038
988.824   	609.197
989.322  	754.886
989.819  	579.342
990.317  	1281.61
990.814   	444.643
991.311   	597.472
991.808    	287.815
992.305  	757.008
992.801    	662.443
993.298   	819.553
993.794   	421.064
994.29    	751.702
994.785       	794.124
995.281  	397.466
995.776  	456.425
996.271    	808.96
996.766   	416.774
997.261  	323.335
997.755   	515.272
998.249  	504.581
998.744  	269.499
999.237  	738.965
999.731  	706.04
1000.22     	901.011
1000.72 	615.591
1001.21       	373.85
1001.7  	429.64
1002.2 	975.959
1002.69 	598.538
1003.18  	292.122
1003.67 	862.95
1004.17 	724.1
1004.66 	530.233
1005.15 	429.64
1005.64  	1279.51
1006.13 	1005.47
1006.62 	466.062
1007.11  	433.927
1007.6 	243.623
1008.09 	585.742
1008.58   	459.638
1009.07 	237.15
1009.56 	-14.2968
1010.05 	939.032
1010.54 	789.884
1011.03  	556.932
1011.52 	369.554
1012.01  	787.764
1012.5    	656.058
1012.99    	618.788
1013.47  	676.272
1013.96 	1079.16
1014.45  	120.384
1014.94    	329.788
1015.42 	846.021
1015.91 	250.094
1016.4  	555.865
1016.88 	336.241
1017.37  	217.723
1017.86  	1051.81
1018.34 	369.554
1018.83 	281.352
1019.31  	-224.218
1019.8 	371.702
1020.29  	451.07
1020.77    	328.713
1021.26 	461.78
1021.74 	841.787
1022.22  	457.496
1022.71 	524.891
1023.19  	585.742
1023.68  	904.181
1024.16 	477.837
1024.64 	838.612
1025.13  	253.329
1025.61 	751.702
1026.09  	553.729
1026.58    	478.907
1027.06    	969.631
1027.54  	1007.58
1028.02  	356.663
1028.5 	-4.49864
1028.99  	1049.7
1029.47 	1287.88
1029.95 	329.788
1030.43 	214.484
1030.91  	635.831
1031.39  	140.962
1031.87 	534.506
1032.35  	324.41
1032.83  	514.203
1033.31   	1164.25
1033.79   	453.212
1034.27 	371.702
1034.75     	499.234
1035.23 	750.641
1035.71   	288.892
1036.18   	311.5
1036.66 	270.577
1037.14 	920.026
1037.62  	382.44
1038.1  	499.234
1038.57  	1227.16
1039.05      	1406.98
1039.53   	315.804
1040  	143.127
1040.48  	901.011
1040.96 	1496.61
1041.43  	354.514
1041.91  	476.767
1042.39    	1342.25
1042.86     	857.66
1043.34  	528.096
1043.81 	124.718
1044.29  	880.928
1044.76 	129.05
1045.24  	308.271
1045.55 	1297.3